t,radius,set_speed_r,set_speed_r_filtered,meas_speed_r,acc_cmd_r,set_speed_theta,meas_speed_theta,acc_cmd_theta,set_speed_z,meas_speed_z,acc_cmd_z,acc_x,acc_y,acc_z,pub_vel_x,pub_vel_y,pub_vel_z,pid_r_P,pid_r_I,pid_r_D,pid_vtheta_P,pid_vtheta_I,pid_vtheta_D,pid_z_P,pid_z_I,pid_z_D,yaw_enu,yaw_target,error_yaw,total_yaw_err,yaw_rate,drone_z,target_z,r_lock_position,r_lock_active,r_pid_P,r_pid_I,r_pid_D,z_lock_position,z_lock_active,z_pid_P,z_pid_I,z_pid_D,theta_actual,theta_target,theta_lock_position,theta_lock_active,theta_pid_P,theta_pid_I,theta_pid_D,dt
5.606509667006321,23.923386884113373,-1.5,-1.5,-1.8472419229832928,-0.09747660264752499,-3.5,0.01740235214478414,-2.248656279121511,0.0,2.4981493949890137,-3.0,-0.7102251282800127,2.1357755071298907,-3.0,0.0,0.0,0.0,0.7639322305632442,0.014171248509411207,-0.8755927405406743,-7.738285174718526,-0.14354505008971497,0.0,-1.4988896369934082,-0.0,-6.399400788333151,0.3586651612848346,-2.7772369539335346,-3.1359021152183693,-3.1359021152183693,4.621393928333228,40.3965950012207,0.0,-0.0,0,0.0,0.0,0.0,0.0,0,0.0,0.0,0.0,-2.7772369539335346,1.5707963267948966,-0.0,0,0.0,0.0,0.0,0.039809922003769316
5.703262966009788,24.149561336408407,-1.5,-1.5,-1.8445169460796436,0.7952844206680134,-3.5,0.013291027631078589,-2.2489848459210156,0.0,2.4900145530700684,-3.0,-1.5444842165640877,1.8179600247871368,-3.0,0.0,0.0,0.0,0.7579372813752159,0.05568155679566711,-0.018341732394143485,-7.729240260788373,-0.2,0.0,-1.494008731842041,-0.0,-1.7686825664130787,0.3576179637336381,-2.7772437895817723,-3.1348617533154104,-3.1348617533154104,-5.090758763850904,40.69503402709961,0.0,-0.0,0,0.0,0.0,0.0,0.0,0,0.0,0.0,0.0,-2.7772437895817723,1.5707963267948966,-0.0,0,0.0,0.0,0.0,0.02669440899626352
5.80223160800233,24.29930190245045,-1.5,-1.5,-1.8352405005863348,0.7890509131781857,-3.5,-0.004576842712258555,-2.2503456727746367,0.0,2.4594264030456543,-2.13156209344064,-1.5391844014288263,1.8214193281507274,-2.13156209344064,0.0,0.0,0.0,0.7375291012899367,0.08358940089412517,-0.03206845106723481,-7.689930946033032,-0.2,0.0,-1.4756558418273926,-0.0,-0.655906251613247,0.3527310418280538,-2.777222058635704,-3.1299531004637577,-3.1299531004637577,-5.070820365307386,40.98998260498047,0.0,-0.0,0,0.0,0.0,0.0,0.0,0,0.0,0.0,0.0,-2.777222058635704,1.5707963267948966,-0.0,0,0.0,0.0,0.0,0.04225265499553643
5.9027561450056965,24.522372144531847,-1.5,-1.5,-1.8038924368229443,0.7167301360531085,-3.5,-0.07664306371807017,-2.2556379473470636,0.0,2.3619234561920166,-1.3952077297313197,-1.4739747319720475,1.8517567677604725,-1.3952077297313197,0.0,0.0,0.0,0.6685633610104775,0.12064411245496638,-0.07271688027472537,-7.531385259820246,-0.2,0.0,-1.41715407371521,-0.0,0.021946343983890376,0.32637657012293975,-2.776964405559587,-3.1033409756825265,-3.1033409756825265,-4.967883982611591,41.18119812011719,0.0,-0.0,0,0.0,0.0,0.0,0.0,0,0.0,0.0,0.0,-2.776964405559587,1.5707963267948966,-0.0,0,0.0,0.0,0.0,0.0398160269978689
6.008899757012841,24.667788375511563,-1.5,-1.5,-1.7694159947960024,0.6368533644512473,-3.5,-0.1595786233190326,-2.2614465457636457,0.0,2.2610514163970947,-1.1137173966677074,-1.4022205692827507,1.885072985918465,-1.1137173966677074,0.0,0.0,0.0,0.5927151885512054,0.14300163591214066,-0.09989579159500139,-7.348927028698129,-0.2,0.0,-1.3566308498382569,-0.0,0.24291345317054946,0.2919935838586514,-2.7765401578868367,-3.068533741745488,-3.068533741745488,-4.871387680976339,41.45429992675781,0.0,-0.0,0,0.0,0.0,0.0,0.0,0,0.0,0.0,0.0,-2.7765401578868367,1.5707963267948966,-0.0,0,0.0,0.0,0.0,0.03992171499703545
6.103529890009668,24.880647384825373,-1.5,-1.5,-1.7002479131508663,0.4857114655166566,-3.5,-0.3455895746742591,-2.2736162646436995,0.0,2.105447769165039,-0.9212120676507329,-1.2678576665058545,1.9487902616928883,-0.9212120676507329,0.0,0.0,0.0,0.4405454089319059,0.16997342945471342,-0.12960757570537515,-6.93970293571663,-0.2,0.0,-1.2632686614990234,-0.0,0.34205659384829046,0.21868975527488965,-2.7752706966368788,-2.9939604519117684,-2.9939604519117684,-4.703696226503261,41.62628936767578,0.0,-0.0,0,0.0,0.0,0.0,0.0,0,0.0,0.0,0.0,-2.7752706966368788,1.5707963267948966,-0.0,0,0.0,0.0,0.0,0.04005953000159934
6.202627740000025,25.017023197096837,-1.5,-1.5,-1.6477414345761068,0.3886438220207253,-3.5,-0.5104866045590386,-2.2836231022972235,0.0,2.0096495151519775,-0.8592043085931872,-1.1836145550193797,1.9912395834973617,-0.8592043085931872,0.0,0.0,0.0,0.32503115606743493,0.18288152797019255,-0.1296856318852076,-6.576929469970116,-0.2,0.0,-1.2057897090911864,-0.0,0.34658540049799924,0.12304571226560013,-2.7738651690373572,-2.8969108813029574,-2.8969108813029574,-4.22015820799137,41.869354248046875,0.0,-0.0,0,0.0,0.0,0.0,0.0,0,0.0,0.0,0.0,-2.7738651690373572,1.5707963267948966,-0.0,0,0.0,0.0,0.0,0.04055644299660344
6.304299531009747,25.214845830490592,-1.5,-1.5,-1.5779305373608596,0.2859620620547478,-3.5,-0.7943678726360367,-2.299711084198463,0.0,1.8772295713424683,-0.7952561077700648,-1.099982469255383,2.0397264373073916,-0.7952561077700648,0.0,0.0,0.0,0.1714471821938912,0.19490674195021132,-0.10541760768853076,-5.95239068020072,-0.2,0.0,-1.1263377428054808,-0.0,0.33108163503541604,0.04921828490624014,-2.7707294043705413,-2.8199476892767814,-2.8199476892767814,-4.3508476626216686,42.023128509521484,0.0,-0.0,0,0.0,0.0,0.0,0.0,0,0.0,0.0,0.0,-2.7707294043705413,1.5707963267948966,-0.0,0,0.0,0.0,0.0,0.038531458005309105
6.403730658013956,25.341991294998834,-1.5,-1.5,-1.5422090672397717,0.25293047550351955,-3.5,-0.9936378817491429,-2.3104687032265243,0.0,1.7950166463851929,-0.7616576134519943,-1.078929952067033,2.0586766653751924,-0.7616576134519943,0.0,0.0,0.0,0.09285994792749773,0.1989389502033781,-0.07782811717360799,-5.513996660151887,-0.2,0.0,-1.0770099878311157,-0.0,0.3153523743791213,-0.030543261909900643,-2.7678973351791587,-2.737354073269258,-2.737354073269258,-4.209698260491913,42.240760803222656,0.0,-0.0,0,0.0,0.0,0.0,0.0,0,0.0,0.0,0.0,-2.7678973351791587,1.5707963267948966,-0.0,0,0.0,0.0,0.0,0.03982963900489267
6.511224236004637,25.52888113840475,-1.5,-1.5,-1.506627795788268,0.23541046493622053,-3.5,-1.2921847907177317,-2.326260354397648,0.0,1.6801806688308716,-0.7180022157581032,-1.07947144648333,2.074041156696498,-0.7180022157581032,0.0,0.0,0.0,0.014581150734189842,0.2,-0.044576667529394605,-4.85719346042099,-0.2,0.0,-1.0081084012985229,-0.0,0.29010618554041967,-0.15690509975429023,-2.7625588899573814,-2.605653790203091,-2.605653790203091,-3.9844035117689507,42.37844467163086,0.0,-0.0,0,0.0,0.0,0.0,0.0,0,0.0,0.0,0.0,-2.7625588899573814,1.5707963267948966,-0.0,0,0.0,0.0,0.0,0.03981913499592338
6.602414767010487,25.650944792548305,-1.5,-1.5,-1.4915619898623054,0.2332627807122449,-3.5,-1.488096558546601,-2.3365304682507375,0.0,1.6090346574783325,-0.6889331604959286,-1.0902233438519633,2.079711329595976,-0.6889331604959286,0.0,0.0,0.0,-0.018563622302928184,0.19962352501509206,-0.03412654906264214,-4.426187571197478,-0.2,0.0,-0.9654207944869995,-0.0,0.27648763399107096,-0.24382249650360777,-2.758261693629205,-2.514439197125597,-2.514439197125597,-3.8121796148985845,42.57341003417969,0.0,-0.0,0,0.0,0.0,0.0,0.0,0,0.0,0.0,0.0,-2.758261693629205,1.5707963267948966,-0.0,0,0.0,0.0,0.0,0.03670516599959228
6.703884762013331,25.831915139431704,-1.5,-1.5,-1.4761983011828521,0.24605586526589907,-3.5,-1.7752206860583133,-2.3514472890158924,0.0,1.5097274780273438,-0.6535430436754689,-1.1232329965574286,2.0804315603490924,-0.6535430436754689,0.0,0.0,0.0,-0.05236373739772535,0.197339054263981,-0.0209161547948019,-3.794514490671711,-0.2,0.0,-0.9058364868164062,-0.0,0.25229344314093727,-0.3771656513559747,-2.750794587460457,-2.3736289361044824,-2.3736289361044824,-3.60668798440608,42.69687271118164,0.0,-0.0,0,0.0,0.0,0.0,0.0,0,0.0,0.0,0.0,-2.750794587460457,1.5707963267948966,-0.0,0,0.0,0.0,0.0,0.0399666849989444
6.802339288013172,25.9509600823146,-1.5,-1.5,-1.4681952520674153,0.25528876437924697,-3.5,-1.9642184045989812,-2.361127146221499,0.0,1.4485920667648315,-0.632830756958112,-1.147292004901273,2.0793784670742315,-0.632830756958112,0.0,0.0,0.0,-0.06997044545168635,0.19494281205044406,-0.018354554227743822,-3.3787195098822416,-0.2,0.0,-0.8691552400588989,-0.0,0.23632448310078694,-0.4675737066092811,-2.7451119057773496,-2.2775381991680685,-2.2775381991680685,-3.4491105015384664,42.87211608886719,0.0,-0.0,0,0.0,0.0,0.0,0.0,0,0.0,0.0,0.0,-2.7451119057773496,1.5707963267948966,-0.0,0,0.0,0.0,0.0,0.039961481001228094
6.903850325004896,26.12880340751348,-1.5,-1.5,-1.4580170952105664,0.27779185798644535,-3.5,-2.2469116047755415,-2.375380235753456,0.0,1.3630155324935913,-0.6014389119769077,-1.193465942078311,2.0724957480947546,-0.6014389119769077,0.0,0.0,0.0,-0.09236239053675384,0.19029576875168325,-0.013361687296036963,-2.756794469493809,-0.2,0.0,-0.8178093194961548,-0.0,0.21637040751924713,-0.6058037833672318,-2.735530296510953,-2.129726513143721,-2.129726513143721,-3.213792302888894,42.984474182128906,0.0,-0.0,0,0.0,0.0,0.0,0.0,0,0.0,0.0,0.0,-2.735530296510953,1.5707963267948966,-0.0,0,0.0,0.0,0.0,0.039737752988003194
7.005323123012204,26.245404905565543,-1.5,-1.5,-1.453917632432214,0.3039877091285826,-3.5,-2.4327718470270243,-2.3847683488520772,0.0,1.3103078603744507,-0.5823264816963674,-1.2357481679450804,2.0621481688783385,-0.5823264816963674,0.0,0.0,0.0,-0.10138120864912908,0.18668653608684965,-0.006819144423228943,-2.3479019365405467,-0.2,0.0,-0.7861847162246703,-0.0,0.20385823452830296,-0.6984807666481307,-2.728509491177553,-2.0300287245294224,-2.0300287245294224,-3.050036649502307,43.14264678955078,0.0,-0.0,0,0.0,0.0,0.0,0.0,0,0.0,0.0,0.0,-2.728509491177553,1.5707963267948966,-0.0,0,0.0,0.0,0.0,0.039810525995562784
7.103252214001259,26.419155774422517,-1.5,-1.5,-1.4529047479070416,0.3589864747880552,-3.5,-2.709063707718217,-2.0890430867289087,0.0,1.2375779151916504,-0.5582358783786269,-1.1877545580021387,1.755622800386161,-0.5582358783786269,0.0,0.0,0.0,-0.10360955460450848,0.18102769190337897,0.0037764869418182643,-1.740059843019923,-0.2,0.0,-0.7425467491149902,-0.0,0.18431087073636332,-0.838805238508475,-2.7169640236084582,-1.8781587850999832,-1.8781587850999832,-2.8110664541892567,43.24340057373047,0.0,-0.0,0,0.0,0.0,0.0,0.0,0,0.0,0.0,0.0,-2.7169640236084582,1.5707963267948966,-0.0,0,0.0,0.0,0.0,0.0401702929957537
7.202557606011396,26.533388652143813,-1.5,-1.5,-1.455236003336609,0.4013361630192925,-3.5,-2.8874153614928413,-1.7060478390218172,0.0,1.1934274435043335,-0.5439993079922559,-1.0799822635332377,1.3803290387555007,-0.5439993079922559,0.0,0.0,0.0,-0.09848079265946029,0.17738991708320007,0.008212839305511425,-1.3476862047157492,-0.2,0.0,-0.7160564661026001,-0.0,0.17205715811034414,-0.9323548864153706,-2.708712592458079,-1.7763577060427083,-1.7763577060427083,-2.6415632219533762,43.33917999267578,0.0,-0.0,0,0.0,0.0,0.0,0.0,0,0.0,0.0,0.0,-2.708712592458079,1.5707963267948966,-0.0,0,0.0,0.0,0.0,0.039841357996920124
7.303401064011268,26.706556509749888,-1.5,-1.5,-1.4624588901862454,0.4721471358384945,-3.5,-3.1354210871008923,-1.1737701893892991,0.0,1.1334452629089355,-0.5282844171871641,-0.9325567097903626,0.8549838351714364,-0.5282844171871641,0.0,0.0,0.0,-0.08259044159026008,0.17258508792951976,0.0140456768576297,-0.802073608378037,-0.2,0.0,-0.6800671577453613,-0.0,0.15178274055819718,-1.0749482863033073,-2.695268389615286,-1.6203201033119785,-1.6203201033119785,-2.401719807813578,43.4781494140625,0.0,-0.0,0,0.0,0.0,0.0,0.0,0,0.0,0.0,0.0,-2.695268389615286,1.5707963267948966,-0.0,0,0.0,0.0,0.0,0.03991012799087912
7.4076875260070665,26.822024077874623,-1.5,-1.5,-1.467083320315723,0.5042198544661168,-3.5,-3.2688972614058986,-0.887224784989799,0.0,1.0972849130630493,-0.5177411402955818,-0.8432870729607942,0.5746933036979317,-0.5177411402955818,0.0,0.0,0.0,-0.07241669530540946,0.16986276149865923,0.008381434489188046,-0.508426024907023,-0.2,0.0,-0.6583709478378296,-0.0,0.1406298075422477,-1.1684979342102035,-2.6857854465211894,-1.517287512310986,-1.517287512310986,-2.2491724880003883,43.56674575805664,0.0,-0.0,0,0.0,0.0,0.0,0.0,0,0.0,0.0,0.0,-2.6857854465211894,1.5707963267948966,-0.0,0,0.0,0.0,0.0,0.04034266801318154
7.507748375006486,26.99542564706927,-1.5,-1.5,-1.468328084354478,0.5151661388006296,-3.5,-3.404937696607276,-0.5943375421951061,0.0,1.045104742050171,-0.4341033267734978,-0.72865340290442,0.2961376083260584,-0.4341033267734978,0.0,0.0,0.0,-0.06967821442014857,0.16603739406531734,-0.01065842025173191,-0.2091370674639924,-0.2,0.0,-0.6270628452301025,-0.0,0.1929595184566047,-1.3042845500153624,-2.6709843085961786,-1.3666997585808163,-1.3666997585808163,-1.4465951412273725,43.69438934326172,0.0,-0.0,0,0.0,0.0,0.0,0.0,0,0.0,0.0,0.0,-2.6709843085961786,1.5707963267948966,-0.0,0,0.0,0.0,0.0,0.03400995000265539
7.60234065700206,27.11164273414661,-1.5,-1.5,-1.463498805064678,0.5058498239275387,-3.5,-3.457610231668529,-0.4799008631431252,0.0,1.0066968202590942,-0.4539454490506971,-0.6704475997872685,0.19154346439523626,-0.4539454490506971,0.0,0.0,0.0,-0.0803026288577084,0.1631772502237798,-0.01798179260731725,-0.09325749032923598,-0.2,0.0,-0.6040180921554565,-0.0,0.1500726431047594,-1.3934708747922728,-2.6607942151720168,-1.267323340379744,-1.267323340379744,-1.886626993335733,43.81589126586914,0.0,-0.0,0,0.0,0.0,0.0,0.0,0,0.0,0.0,0.0,-2.6607942151720168,1.5707963267948966,-0.0,0,0.0,0.0,0.0,0.04212252200522926
7.705148733002716,27.2832535233049,-1.5,-1.5,-1.4485474403978829,0.4624394470113531,-3.5,-3.4965299803236856,-0.393275009785747,0.0,0.9545567631721497,-0.43869369812300957,-0.5938886993200894,0.12574453584167367,-0.43869369812300957,0.0,0.0,0.0,-0.11319563112465772,0.15769353410040213,-0.03016197458834662,-0.007634043287891768,-0.2,0.0,-0.5727340579032898,-0.0,0.13404035978028023,-1.5241960357666482,-2.6454950255611336,-1.1212989897944854,-1.1212989897944854,-1.6775525545899619,43.89280700683594,0.0,-0.0,0,0.0,0.0,0.0,0.0,0,0.0,0.0,0.0,-2.6454950255611336,1.5707963267948966,-0.0,0,0.0,0.0,0.0,0.04220031500153709
7.80352893100644,27.39619974132553,-1.5,-1.5,-1.4350827980113683,0.41741304697987625,-3.5,-3.504796833904319,-0.37279025350091155,0.0,0.9199016094207764,-0.4163784721803214,-0.5458309628017322,0.1235912009053736,-0.4163784721803214,0.0,0.0,0.0,-0.1428178443749898,0.15294400994362992,-0.04108190560766794,0.010553034589502186,-0.199753093306068,0.0,-0.5519409656524658,-0.0,0.1355624934721443,-1.6111134325159657,-2.635277443195178,-1.0241640106792125,-1.0241640106792125,-1.4700636991185736,44.00243377685547,0.0,-0.0,0,0.0,0.0,0.0,0.0,0,0.0,0.0,0.0,-2.635277443195178,1.5707963267948966,-0.0,0,0.0,0.0,0.0,0.03470357599144336
7.908463143001427,27.564606723672703,-1.5,-1.5,-1.419285849492334,0.39612074489588206,-3.5,-3.507908523646435,-0.3620810924719508,0.0,0.8699401617050171,-0.40109719587593784,-0.5238638982842148,0.11653745379497452,-0.40109719587593784,0.0,0.0,0.0,-0.17757113111686534,0.14338147840363813,-0.016110708036606948,0.017398752022157283,-0.19885963906780826,0.0,-0.5219640970230103,-0.0,0.12086690114707244,-1.741838593490341,-2.6199527436544376,-0.8781141501640963,-0.8781141501640963,-1.333199575652581,44.072322845458984,0.0,-0.0,0,0.0,0.0,0.0,0.0,0,0.0,0.0,0.0,-2.6199527436544376,1.5707963267948966,-0.0,0,0.0,0.0,0.0,0.045561923005152494
8.014849886007141,27.676016966328934,-1.5,-1.5,-1.414589148318798,0.38864213349029875,-3.5,-3.5098387994438482,-0.35591939169497444,0.0,0.8380651473999023,-0.37946809441079954,-0.5154535035849699,0.10967682959673541,-0.37946809441079954,0.0,0.0,0.0,-0.1879038736986444,0.13707819205583766,-0.005645671141631265,0.02164535877646614,-0.1981682757517576,0.0,-0.5028390884399414,-0.0,0.12337099402914188,-1.8289305231648578,-2.6097659799654243,-0.7808354568005664,-0.7808354568005664,-1.1515053714804204,44.171756744384766,0.0,-0.0,0,0.0,0.0,0.0,0.0,0,0.0,0.0,0.0,-2.6097659799654243,1.5707963267948966,-0.0,0,0.0,0.0,0.0,0.039989179000258446
8.103261899013887,27.844192169362152,-1.5,-1.5,-1.419303575049541,0.4126586639860903,-3.5,-3.517980454447586,-0.3361835080753186,0.0,0.7931186556816101,-0.36193002145257597,-0.5273123623517637,0.0724444378514667,-0.36193002145257597,0.0,0.0,0.0,-0.17753213489100964,0.12708655191308868,0.018624249031330982,0.03955699978468896,-0.1964182920966099,0.0,-0.47587119340896605,-0.0,0.11394117195639007,-1.959481151214034,-2.594495797624652,-0.6350146464106179,-0.6350146464106179,-0.9341985551132718,44.23526382446289,0.0,-0.0,0,0.0,0.0,0.0,0.0,0,0.0,0.0,0.0,-2.594495797624652,1.5707963267948966,-0.0,0,0.0,0.0,0.0,0.039903976998175494
8.202184143010527,27.957027263515467,-1.5,-1.5,-1.4285198420799787,0.437755808830274,-3.5,-3.52662293535717,-0.3160481950236536,0.0,0.7647822499275208,-0.3513401249343574,-0.5386730281299172,0.0367148268101887,-0.3513401249343574,0.0,0.0,0.0,-0.15725634742404682,0.12093194908746684,0.029216409204405016,0.058570457785774195,-0.19441884861684966,0.0,-0.4588693499565124,-0.0,0.10752922502215499,-2.0458749491877533,-2.584323599453461,-0.5384486502657078,-0.5384486502657078,-0.7741978513049605,44.325645446777344,0.0,-0.0,0,0.0,0.0,0.0,0.0,0,0.0,0.0,0.0,-2.584323599453461,1.5707963267948966,-0.0,0,0.0,0.0,0.0,0.03757139600929804
8.303972403009539,28.12918330697025,-1.5,-1.5,-1.4483720037131635,0.48418014027869466,-3.5,-3.541558854876642,-0.28111933007707074,0.0,0.7250247001647949,-0.330984959863544,-0.5592686599901039,-0.026020221677593186,-0.330984959863544,0.0,0.0,0.0,-0.1135815918310402,0.11395135233830524,0.037916199848788266,0.09142948072861269,-0.19019390064251776,0.0,-0.43501482009887693,-0.0,0.10402986023533294,-2.2099358988752202,-2.569061389092167,-0.35912549021694673,-0.35912549021694673,-0.15995767097867578,44.383460998535156,0.0,-0.0,0,0.0,0.0,0.0,0.0,0,0.0,0.0,0.0,-2.569061389092167,1.5707963267948966,-0.0,0,0.0,0.0,0.0,0.038283344998490065
8.402601398003753,28.245531505223234,-1.5,-1.5,-1.4625241122171233,0.5121482127661992,-3.5,-3.550774099907679,-0.25847349326428376,0.0,0.69980788230896,-0.32098225091453203,-0.5698660586773946,-0.06600767930586557,-0.32098225091453203,0.0,0.0,0.0,-0.08244695312232873,0.11064180580926994,0.03758198603576767,0.11170301979689407,-0.1863211397894547,0.0,-0.41988472938537597,-0.0,0.09890247847084395,-2.2476350107182976,-2.558887837199178,-0.31125282648088026,-0.31125282648088026,-0.33342893220794545,44.465904235839844,0.0,-0.0,0,0.0,0.0,0.0,0.0,0,0.0,0.0,0.0,-2.558887837199178,1.5707963267948966,-0.0,0,0.0,0.0,0.0,0.03628295900125522
8.5092968030076,28.422832159126674,-1.5,-1.5,-1.4811579091572664,0.5390359686201495,-3.5,-3.5618333832516784,-0.2289429641963587,0.0,0.6647204160690308,-0.3088895576056323,-0.574392128285541,-0.11422932760409854,-0.3088895576056323,0.0,0.0,0.0,-0.04145259985401389,0.10768820370702112,0.026445934673082667,0.13603344315369253,-0.1793637401405458,0.0,-0.39883224964141845,-0.0,0.08994269203578614,-2.3465951793063757,-2.543644795545862,-0.19704961623948636,-0.19704961623948636,-0.36393904158315826,44.518760681152344,0.0,-0.0,0,0.0,0.0,0.0,0.0,0,0.0,0.0,0.0,-2.543644795545862,1.5707963267948966,-0.0,0,0.0,0.0,0.0,0.040114881994668394
8.602181321009994,28.54228652293327,-1.5,-1.5,-1.490110932534392,0.5467700159227318,-3.5,-3.56682448386885,-0.21293219327724336,0.0,0.6422880291938782,-0.30335212335198947,-0.5704043486853179,-0.13760976799224725,-0.30335212335198947,0.0,0.0,0.0,-0.02175594842433766,0.10667812691080461,0.01611491101132077,0.14701386451146972,-0.17373237958273527,0.0,-0.3853728175163269,-0.0,0.08202069416433742,-2.4008749190433996,-2.53349969203436,-0.13262477299096043,-0.13262477299096043,-0.31489580546623125,44.56942367553711,0.0,-0.0,0,0.0,0.0,0.0,0.0,0,0.0,0.0,0.0,-2.53349969203436,1.5707963267948966,-0.0,0,0.0,0.0,0.0,0.04571006698824931
8.703331945012906,28.72306404031469,-1.5,-1.5,-1.4975163230172304,0.5517372358829287,-3.5,-3.5706706122185032,-0.19648849255756892,0.0,0.6099725961685181,-0.2821447849086142,-0.5626897001176024,-0.16248694270261482,-0.2821447849086142,0.0,0.0,0.0,-0.005464089362093195,0.10616099137007123,0.007157028003897218,0.15547534688070713,-0.16580203168649582,0.0,-0.36598355770111085,-0.0,0.08383877279249664,-2.4668483647687856,-2.518349109547734,-0.051500744778948615,-0.051500744778948615,-0.19563917368654873,44.64252471923828,0.0,-0.0,0,0.0,0.0,0.0,0.0,0,0.0,0.0,0.0,-2.518349109547734,1.5707963267948966,-0.0,0,0.0,0.0,0.0,0.036846150003839284
8.802490968009806,28.84407167876363,-1.5,-1.5,-1.498668221606695,0.5452262613177601,-3.5,-3.5715838334429875,-0.18816138111941375,0.0,0.5889294147491455,-0.2732322656880788,-0.5508499457030102,-0.17099917746673063,-0.2732322656880788,0.0,0.0,0.0,-0.002929912465270768,0.10604325456880977,-0.00013432040497012398,0.15748443357457242,-0.16007495453258683,0.0,-0.3533576488494873,-0.0,0.08012538316140852,-2.5010568181078745,-2.508287533904546,-0.007230715796671561,-0.007230715796671561,-0.16650057836348364,44.71147918701172,0.0,-0.0,0,0.0,0.0,0.0,0.0,0,0.0,0.0,0.0,-2.508287533904546,1.5707963267948966,-0.0,0,0.0,0.0,0.0,0.040605947011499666
8.907939518001513,29.025801046164297,-1.5,-1.5,-1.495913157045149,0.5300694094888606,-3.5,-3.570833982188003,-0.17940258240225104,0.0,0.5589295029640198,-0.2603993397901114,-0.5308603950471993,-0.17704831662232032,-0.2603993397901114,0.0,0.0,0.0,-0.008991054500672347,0.10567113407186542,-0.005904500701130556,0.15583476081360628,-0.15120598686902373,-0.0,-0.33535770177841184,-0.0,0.07495836198830047,-2.5389304628761513,-2.493331835993472,0.04559862688267913,0.04559862688267913,-0.12449347572472047,44.75577163696289,0.0,-0.0,0,0.0,0.0,0.0,0.0,0,0.0,0.0,0.0,-2.493331835993472,1.5707963267948966,-0.0,0,0.0,0.0,0.0,0.0452043809928
9.015971971006365,29.148297010900954,-1.5,-1.5,-1.4923050301500542,0.51466125334324,-3.5,-3.570330504257295,-0.1735406436428753,0.0,0.5392179489135742,-0.25145347265850954,-0.5132856966591053,-0.1775678864378211,-0.25145347265850954,0.0,0.0,0.0,-0.01692893366988071,0.10512150847936506,-0.010855666859832766,0.1547271093660486,-0.1454775828384761,-0.0,-0.3235307693481445,-0.0,0.07207729668963496,-2.556558288321294,-2.4833150950394978,0.07324319328179607,0.07324319328179607,-0.09593516814190793,44.819236755371094,0.0,-0.0,0,0.0,0.0,0.0,0.0,0,0.0,0.0,0.0,-2.4833150950394978,1.5707963267948966,-0.0,0,0.0,0.0,0.0,0.046377070000744425
9.103028288009227,29.330187729965488,-1.5,-1.5,-1.486198000559055,0.5006251456275381,-3.5,-3.570802940755201,-0.1626804965805824,0.0,0.5109952688217163,-0.23224590717969684,-0.49285716781479794,-0.1848845383905175,-0.23224590717969684,0.0,0.0,0.0,-0.03036439877007915,0.10374730434125706,-0.007485070900438508,0.15576646966144195,-0.13750982939857673,0.0,-0.3065971612930298,-0.0,0.07435125411333293,-2.572789850364841,-2.4685188117589494,0.1042710386058916,0.1042710386058916,-0.037863594563635916,44.85948181152344,0.0,-0.0,0,0.0,0.0,0.0,0.0,0,0.0,0.0,0.0,-2.4685188117589494,1.5707963267948966,-0.0,0,0.0,0.0,0.0,0.03314332998706959
9.202432244012016,29.450859965935454,-1.5,-1.5,-1.481553680867246,0.48046542093539457,-3.5,-3.571580161596386,-0.1539937513108955,0.0,0.49311625957489014,-0.2250771522807678,-0.46990082598171035,-0.18372346039396883,-0.2250771522807678,0.0,0.0,0.0,-0.040581902092058725,0.10238032931359609,-0.014467551948422164,0.15747635551204928,-0.13179835051273867,0.0,-0.29586975574493407,-0.0,0.07079260346416626,-2.578374903971223,-2.4587181361354586,0.11965676783576429,0.11965676783576429,-0.024546423688673172,44.898258209228516,0.0,-0.0,0,0.0,0.0,0.0,0.0,0,0.0,0.0,0.0,-2.4587181361354586,1.5707963267948966,-0.0,0,0.0,0.0,0.0,0.034832420002203435
9.302908653000486,29.63127043149382,-1.5,-1.5,-1.4757655728851633,0.4730568945681873,-3.5,-3.5742843439931775,-0.13762875004777442,0.0,0.46711596846580505,-0.21338710390856458,-0.45098938282876216,-0.19832567890704925,-0.21338710390856458,0.0,0.0,0.0,-0.05331573965264074,0.099662735976111,-0.004439640255535534,0.16342555678499054,-0.1230394696099507,0.0,-0.280269581079483,-0.0,0.06688247717091844,-2.580469299073616,-2.444169932413385,0.1362993666602308,0.1362993666602308,-0.0026916938706836174,44.95317840576172,0.0,-0.0,0,0.0,0.0,0.0,0.0,0,0.0,0.0,0.0,-2.444169932413385,1.5707963267948966,-0.0,0,0.0,0.0,0.0,0.039618909009732306
9.403357225004584,29.7517216338315,-1.5,-1.5,-1.4716669702414436,0.4342389220846717,-3.5,-3.5759720204575784,-0.12678187211332057,0.0,0.4504946768283844,-0.18397069208290806,-0.4124860776425087,-0.18572108200447845,-0.18397069208290806,0.0,0.0,0.0,-0.0623326654688242,0.09756223563311711,-0.03080025871251827,0.1671384450066726,-0.11703509434919776,0.0,-0.2702968060970306,-0.0,0.08632611401412256,-2.578898502746821,-2.434464850912613,0.1444336518342082,0.1444336518342082,0.06612814195563878,44.98835754394531,0.0,-0.0,0,0.0,0.0,0.0,0.0,0,0.0,0.0,0.0,-2.434464850912613,1.5707963267948966,-0.0,0,0.0,0.0,0.0,0.03992111899424344
9.516305689001456,29.933385833747735,-1.5,-1.5,-1.467035295768248,0.4482121871702477,-3.5,-3.578755508951443,-0.10930072355030894,0.0,0.42639991641044617,-0.19785051520575414,-0.40869103033379506,-0.21403844192401336,-0.19785051520575414,0.0,0.0,0.0,-0.07252234930985445,0.0934885728053825,-0.0006204682746784134,0.1732621196931744,-0.1071680290478353,0.0,-0.2558399498462677,-0.0,0.05798943464051353,-2.5736625149908385,-2.419961050679353,0.15370146431148557,0.15370146431148557,0.03834892473908351,45.03857421875,0.0,-0.0,0,0.0,0.0,0.0,0.0,0,0.0,0.0,0.0,-2.419961050679353,1.5707963267948966,-0.0,0,0.0,0.0,0.0,0.047040069999638945
9.602289214002667,30.053828962859065,-1.5,-1.5,-1.4638147474097254,0.4297105818750936,-3.5,-3.57990862543759,-0.09945562594934881,0.0,0.411327064037323,-0.18993441999325508,-0.3862694789363251,-0.2129283808013112,-0.18993441999325508,0.0,0.0,0.0,-0.07960755569860414,0.09069531832699546,-0.0078035699604875886,0.17579897596269758,-0.1008900293721918,0.0,-0.2467962384223938,-0.0,0.0568618184291387,-2.5684265272348554,-2.4103524186676215,0.15807410856723392,0.15807410856723392,0.05338400718722838,45.08621597290039,0.0,-0.0,0,0.0,0.0,0.0,0.0,0,0.0,0.0,0.0,-2.4103524186676215,1.5707963267948966,-0.0,0,0.0,0.0,0.0,0.0453465159953339
9.7027485800063,30.236424032756386,-1.5,-1.5,-1.4603090336709046,0.41568425872360976,-3.5,-3.580760450169409,-0.08695520072890386,0.0,0.3893936574459076,-0.17673689180445373,-0.3643683683293541,-0.21815201590956035,-0.17673689180445373,0.0,0.0,0.0,-0.08732012592400991,0.08626414808241603,-0.007312733045454877,0.17767299037269987,-0.09169051741608225,-0.0,-0.23363619446754455,-0.0,0.05689930266309083,-2.559001749274086,-2.3959079853823217,0.16309376389176444,0.16309376389176444,0.07756174418936501,45.116676330566406,0.0,-0.0,0,0.0,0.0,0.0,0.0,0,0.0,0.0,0.0,-2.3959079853823217,1.5707963267948966,-0.0,0,0.0,0.0,0.0,0.03919823899923358
9.802234778006095,30.356500189807843,-1.5,-1.5,-1.457285748591574,0.40200255827791687,-3.5,-3.5801335566832986,-0.08083907556489504,0.0,0.37553977966308594,-0.1720271427630482,-0.3481252583853741,-0.21667906561154748,-0.1720271427630482,0.0,0.0,0.0,-0.0939713530985372,0.08291562753542252,-0.00916945003960917,0.17629382470325689,-0.08526599935443165,-0.0,-0.22532386779785155,-0.0,0.05329672503480336,-2.5516713664157096,-2.386408632771033,0.16526273364467636,0.16526273364467636,0.09141345201508425,45.14585876464844,0.0,-0.0,0,0.0,0.0,0.0,0.0,0,0.0,0.0,0.0,-2.386408632771033,1.5707963267948966,-0.0,0,0.0,0.0,0.0,0.03989238700887654
9.902885533010704,30.537450722764728,-1.5,-1.5,-1.4540846613311076,0.3890237206769235,-3.5,-3.5782967590416455,-0.07391933200665422,0.0,0.3549965023994446,-0.16095998673561301,-0.33088121969947437,-0.21753423028069663,-0.16095998673561301,0.0,0.0,0.0,-0.10101374507156331,0.07750092757668034,-0.006758700714090536,0.17225286989162003,-0.07578645233947152,-0.0,-0.21299790143966674,-0.0,0.05203791470405374,-2.5394540616517496,-2.3722317277661333,0.16722233388561625,0.16722233388561625,0.10990371198792438,45.18760299682617,0.0,-0.0,0,0.0,0.0,0.0,0.0,0,0.0,0.0,0.0,-2.3722317277661333,1.5707963267948966,-0.0,0,0.0,0.0,0.0,0.037346245007938705
10.008093463009573,30.657234058557876,-1.5,-1.5,-1.4515516970960027,0.3766841007442038,-3.5,-3.576369255662666,-0.07095110065836133,0.0,0.3421612083911896,-0.15612130644656533,-0.3179565243759241,-0.21407619915554546,-0.15612130644656533,0.0,0.0,0.0,-0.106586266388794,0.07367778114925497,-0.0076145576358794325,0.16801236245786486,-0.06963035065789666,-0.0,-0.20529672503471375,-0.0,0.049175418588148424,-2.530727415391778,-2.362844542666822,0.16788287272495594,0.16788287272495594,0.12295238266341785,45.21415328979492,0.0,-0.0,0,0.0,0.0,0.0,0.0,0,0.0,0.0,0.0,-2.362844542666822,1.5707963267948966,-0.0,0,0.0,0.0,0.0,0.04004091100068763
10.111407937001786,30.83776505206638,-1.5,-1.5,-1.4493412199930693,0.36627947168411423,-3.5,-3.573149162128856,-0.06714307005004229,0.0,0.3235037326812744,-0.14999570496451614,-0.3049109676203017,-0.21377124469345754,-0.14999570496451614,0.0,0.0,0.0,-0.11144931601524753,0.06724495235878211,-0.0035343308029693247,0.16092815668348326,-0.060137125247463605,-0.0,-0.19410223960876463,-0.0,0.04410653464424848,-2.5164157155254245,-2.3488346461197485,0.16758106940567608,0.16758106940567608,0.13966344942470257,45.2520866394043,0.0,-0.0,0,0.0,0.0,0.0,0.0,0,0.0,0.0,0.0,-2.3488346461197485,1.5707963267948966,-0.0,0,0.0,0.0,0.0,0.048137927005882375
10.202204624001752,30.957285906528647,-1.5,-1.5,-1.4478027190653588,0.35564197112340085,-3.5,-3.5705741171259886,-0.06649686000637219,0.0,0.31167927384376526,-0.14159104811483567,-0.29505450577990083,-0.20939408452538338,-0.14159104811483567,0.0,0.0,0.0,-0.11483401805621055,0.06334276458274991,-0.004692268257516001,0.15526305767717494,-0.05477218720200659,-0.0,-0.18700756430625914,-0.0,0.04541651619142348,-2.5059437400134588,-2.3395573496817548,0.166386390331704,0.166386390331704,0.1478341698924906,45.288028717041016,0.0,-0.0,0,0.0,0.0,0.0,0.0,0,0.0,0.0,0.0,-2.3395573496817548,1.5707963267948966,-0.0,0,0.0,0.0,0.0,0.03980315300577786
10.304110873010359,31.137462374457815,-1.5,-1.5,-1.4473340370145307,0.34826767382370516,-3.5,-3.566564318477078,-0.06611287655749676,0.0,0.2948575019836426,-0.13357344005005395,-0.28679468595145485,-0.20835088957642556,-0.13357344005005395,0.0,0.0,0.0,-0.11586511856803253,0.05711999456157404,-0.0015105713788970633,0.14644150064957184,-0.04677304694786852,-0.0,-0.17691450119018554,-0.0,0.043341061140131594,-2.489188579194313,-2.325713139212711,0.16347543998160186,0.16347543998160186,0.15845510943758656,45.31073760986328,0.0,-0.0,0,0.0,0.0,0.0,0.0,0,0.0,0.0,0.0,-2.325713139212711,1.5707963267948966,-0.0,0,0.0,0.0,0.0,0.04122679999272805
10.402269868005533,31.256808296158315,-1.5,-1.5,-1.4469165644351119,0.3405166888537564,-3.5,-3.563571899659511,-0.0661834691498357,0.0,0.28407809138298035,-0.1319346447244412,-0.27966521771766517,-0.20522970782896946,-0.1319346447244412,0.0,0.0,0.0,-0.11678355824275394,0.05242702687737751,-0.0014076950848042628,0.13985817925092406,-0.04107946923908962,-0.0,-0.1704468548297882,-0.0,0.03851221010534701,-2.477145807355552,-2.316545515134876,0.16060029222067573,0.16060029222067573,0.16736758094619247,45.34352111816406,0.0,-0.0,0,0.0,0.0,0.0,0.0,0,0.0,0.0,0.0,-2.316545515134876,1.5707963267948966,-0.0,0,0.0,0.0,0.0,0.049888869005371816
10.505313826011843,31.43688161557853,-1.5,-1.5,-1.4478810402816558,0.33592073409632817,-3.5,-3.558796208128334,-0.069005201218008,0.0,0.26828914880752563,-0.12039816782123278,-0.27585970987494773,-0.20372991400053023,-0.12039816782123278,0.0,0.0,0.0,-0.11466171138035733,0.046633920692212776,0.0010768085035403874,0.12935165788233524,-0.034450221699582714,-0.0,-0.16097348928451538,-0.0,0.040575321463282604,-2.458121718508814,-2.3028719622240486,0.15524975628476545,0.15524975628476545,0.17206493441659287,45.36420440673828,0.0,-0.0,0,0.0,0.0,0.0,0.0,0,0.0,0.0,0.0,-2.3028719622240486,1.5707963267948966,-0.0,0,0.0,0.0,0.0,0.03984918100468349
10.602402229007566,31.556254552730763,-1.5,-1.5,-1.4484154041998107,0.3298195244060724,-3.5,-3.5554098317697784,-0.07122647763198042,0.0,0.2582743167877197,-0.11660633515522373,-0.27163266671927366,-0.20017448430377624,-0.11660633515522373,0.0,0.0,0.0,-0.11348611076041638,0.04248933896296331,0.00023203007263556752,0.12190162989351255,-0.029936675539368133,-0.0,-0.15496459007263183,-0.0,0.038358254917408095,-2.444682683268457,-2.293818760380757,0.15086392288770023,0.15086392288770023,0.17434915333465473,45.38420486450195,0.0,-0.0,0,0.0,0.0,0.0,0.0,0,0.0,0.0,0.0,-2.293818760380757,1.5707963267948966,-0.0,0,0.0,0.0,0.0,0.03978585699223913
10.703257666013087,31.736325797419322,-1.5,-1.5,-1.4503104729566636,0.32645800180961726,-3.5,-3.5503912815918213,-0.07507955793867413,0.0,0.24389773607254028,-0.11013279765852635,-0.26963908537583303,-0.19876249798057735,-0.11013279765852635,0.0,0.0,0.0,-0.1093169594953401,0.036426079992000746,0.0021611812349523938,0.1108608195020068,-0.02369192777278146,-0.0,-0.14633864164352417,-0.0,0.03620584398499783,-2.423564199319326,-2.2803195261656635,0.14324467315366274,0.14324467315366274,0.17736439718147007,45.412750244140625,0.0,-0.0,0,0.0,0.0,0.0,0.0,0,0.0,0.0,0.0,-2.2803195261656635,1.5707963267948966,-0.0,0,0.0,0.0,0.0,0.039891349006211385
10.802708487011841,31.85572605164873,-1.5,-1.5,-1.4513498787624157,0.3225178256701207,-3.5,-3.546917723768865,-0.078222745384042,0.0,0.23467595875263214,-0.10585408008728014,-0.2677143702861972,-0.19612639218795602,-0.10585408008728014,0.0,0.0,0.0,-0.10703026672268541,0.03248892527675094,0.002134081472478043,0.10321899229150287,-0.019843832167885787,-0.0,-0.14080557525157927,-0.0,0.034951495164299136,-2.4090779665277733,-2.2713805479341285,0.13769741859364482,0.13769741859364482,0.17870734473644184,45.439788818359375,0.0,-0.0,0,0.0,0.0,0.0,0.0,0,0.0,0.0,0.0,-2.2713805479341285,1.5707963267948966,-0.0,0,0.0,0.0,0.0,0.04029564700613264
10.903458833010518,32.03585706095407,-1.5,-1.5,-1.454296745689606,0.32217299562489055,-3.5,-3.5415252558145918,-0.08407441586357847,0.0,0.22224541008472443,-0.10111960713893178,-0.2693823631399408,-0.19569642036036006,-0.10111960713893178,0.0,0.0,0.0,-0.10054715948286659,0.02687628112048964,0.004332539868489272,0.0913555627921019,-0.014659232160305555,-0.0,-0.13334724605083464,-0.0,0.03222763891190286,-2.3867377521022455,-2.2580584320335757,0.12867932006866978,0.12867932006866978,0.17873263427865807,45.45698547363281,0.0,-0.0,0,0.0,0.0,0.0,0.0,0,0.0,0.0,0.0,-2.2580584320335757,1.5707963267948966,-0.0,0,0.0,0.0,0.0,0.03995622000365984
11.020674749001046,32.15539154045051,-1.5,-1.5,-1.456120849794685,0.31978931242618003,-3.5,-3.537812132494203,-0.0885686272090491,0.0,0.21400262415409088,-0.09735300218367371,-0.2696484284020083,-0.19338906672309972,-0.09735300218367371,0.0,0.0,0.0,-0.09653413045169318,0.023320064788805456,0.0037649305000130385,0.08318669148724639,-0.011549463255194823,-0.0,-0.1284015744924545,-0.0,0.031048572308780796,-2.371553387609895,-2.2492360679509757,0.12231731965891912,0.12231731965891912,0.17966144914414,45.473602294921875,0.0,-0.0,0,0.0,0.0,0.0,0.0,0,0.0,0.0,0.0,-2.2492360679509757,1.5707963267948966,-0.0,0,0.0,0.0,0.0,0.040271195000968874
11.10324252700957,32.337473063958925,-1.5,-1.5,-1.4600780124943413,0.33311668291511476,-3.5,-3.5325452229394365,-0.09520178973772604,0.0,0.2014368325471878,-0.07663126107986123,-0.2805006587767921,-0.20334572931689754,-0.07663126107986123,0.0,0.0,0.0,-0.08782837251244908,0.018270805767845785,0.01677904605395732,0.07159949046676034,-0.0073023732257495675,-0.0,-0.12086209952831267,-0.0,0.044230838448451444,-2.34851504148357,-2.235954075429271,0.112560966054299,0.112560966054299,0.12496947577728422,45.497459411621094,0.0,-0.0,0,0.0,0.0,0.0,0.0,0,0.0,0.0,0.0,-2.235954075429271,1.5707963267948966,-0.0,0,0.0,0.0,0.0,0.03997158900892828
11.202160304004792,32.45734650034369,-1.5,-1.5,-1.4620430981567492,0.3191809526974466,-3.5,-3.529005011080576,-0.10007459359470186,0.0,0.19355778396129608,-0.052504160526761545,-0.2740684453669674,-0.19177562958344838,-0.052504160526761545,0.0,0.0,0.0,-0.08350518405515187,0.01521270798044129,0.0037736593501576376,0.0638110243772676,-0.004921377942172061,-0.0,-0.1088961413209424,-0.0,0.056391980794180854,-2.333330676991219,-2.22721565556009,0.10611502143112927,0.10611502143112927,0.1739278208409812,45.519535064697266,0.0,-0.0,0,0.0,0.0,0.0,45.505008697509766,1,-0.002215576171875,-2.9380507468079744e-05,0.014309171772401819,-2.22721565556009,1.5707963267948966,-0.0,0,0.0,0.0,0.0,0.039875778995337896
11.303243590009515,32.636524582287606,-1.5,-1.5,-1.4653397502081238,0.3212297264158754,-3.5,-3.5238527781733078,-0.10757851386974836,0.0,0.18562272191047668,-0.07386855931622499,-0.27879972023768407,-0.1924380154102377,-0.07386855931622499,0.0,0.0,0.0,-0.07625254954212767,0.010910317205017332,0.006092157022535981,0.052476111981277114,-0.0018379769943309347,-0.0,-0.10274424261526864,-0.0,0.02887568329904365,-2.310292330864894,-2.2142926199551027,0.09599971090979142,0.09599971090979142,0.16773250756685187,45.533748626708984,0.0,-0.0,0,0.0,0.0,0.0,45.505008697509766,1,-0.008621978759765624,-0.00030872306567590325,0.02331301937713715,-2.2142926199551027,1.5707963267948966,-0.0,0,0.0,0.0,0.0,0.03321318198868539
11.402238614013186,32.756234152632494,-1.5,-1.5,-1.4671781385203948,0.3183975251678661,-3.5,-3.520574463275988,-0.1125557546240783,0.0,0.18015192449092865,-0.08386383887580434,-0.2794590950770095,-0.18960062265392652,-0.08386383887580434,0.0,0.0,0.0,-0.07220809525513144,0.008252262549051108,0.003969063338827652,0.045263819207173844,-0.0001302050386375634,-0.0,-0.10105201608863755,-0.0,0.017188177212833212,-2.2951079663725436,-2.2056770666929424,0.08943089967960116,0.08943089967960116,0.1665950652541353,45.55424880981445,0.0,-0.0,0,0.0,0.0,0.0,45.505008697509766,1,-0.01277618408203125,-0.0005974307583247852,0.025105512516888782,-2.2056770666929424,1.5707963267948966,-0.0,0,0.0,0.0,0.0,0.040008217009017244
11.50710693000292,32.936496328257036,-1.5,-1.5,-1.4705546277882426,0.32044126226755176,-3.5,-3.516058209100481,-0.11968326276326478,0.0,0.17075924575328827,-0.08893992449626632,-0.2839850294165903,-0.19068085645009283,-0.08893992449626632,0.0,0.0,0.0,-0.0647798188658662,0.0045756585188698375,0.005296897180267331,0.03532806002105833,0.0019742782168861426,-0.0,-0.09907057459207626,-0.0,0.010130650095809938,-2.2727677519470157,-2.192837269872161,0.07993048207485476,0.07993048207485476,0.16453048299159542,45.567527770996094,0.0,-0.0,0,0.0,0.0,0.0,45.505008697509766,1,-0.018755722045898437,-0.0012687657735930835,0.02566610925265267,-2.192837269872161,1.5707963267948966,-0.0,0,0.0,0.0,0.0,0.03999316399858799
11.60227882199979,33.056279055316914,-1.5,-1.5,-1.472596667361177,0.3201218789694905,-3.5,-3.5135830461605773,-0.1235348286870865,0.0,0.1640613079071045,-0.0894413583309239,-0.28531746183904205,-0.1906116923576089,-0.0894413583309239,0.0,0.0,0.0,-0.0602873318054106,0.0023487007728000006,0.00459845755487094,0.029882701553269976,0.0031061570026750577,-0.0,-0.09792428713295799,-0.0,0.008482928802034094,-2.2581069862302634,-2.1843281069623313,0.07377887926793214,0.07377887926793214,0.1622730205696315,45.58623123168945,0.0,-0.0,0,0.0,0.0,0.0,45.505008697509766,1,-0.02255401611328125,-0.0018446723111406494,0.02525285110992973,-2.1843281069623313,1.5707963267948966,-0.0,0,0.0,0.0,0.0,0.03991051600314677
11.703215172005002,33.23673137644616,-1.5,-1.5,-1.4761577945699569,0.323452206904926,-3.5,-3.509696200690566,-0.13011500561705538,0.0,0.15386860072612762,-0.08971318764137956,-0.2901873459459294,-0.1932422031835978,-0.08971318764137956,0.0,0.0,0.0,-0.052452851946094864,-0.0006659728347813795,0.005957950585079004,0.021331641519244916,0.004431057700026109,-0.0,-0.09637402252165338,-0.0,0.006660834880273811,-2.2366394364307336,-2.1716441714263772,0.06499526500435637,0.06499526500435637,0.15694661152956954,45.59829330444336,0.0,-0.0,0,0.0,0.0,0.0,45.505008697509766,1,-0.027985382080078124,-0.0028922290093080505,0.0241228409460915,-2.1716441714263772,1.5707963267948966,-0.0,0,0.0,0.0,0.0,0.04005654700449668
11.802248535008403,33.3579762048622,-1.5,-1.5,-1.4783189180767902,0.32342835515448926,-3.5,-3.5071803990482264,-0.13457517782649087,0.0,0.14684781432151794,-0.08835701505074325,-0.2922219099450408,-0.1931909282369193,-0.08835701505074325,0.0,0.0,0.0,-0.047698380231061634,-0.002441281780454444,0.004831188650754922,0.015796877906098142,0.005054973208854459,-0.0,-0.09528529266946868,-0.0,0.00692827761872543,-2.2225022694895795,-2.1631472790378736,0.05935499045170589,0.05935499045170589,0.15253248715883333,45.609867095947266,0.0,-0.0,0,0.0,0.0,0.0,45.505008697509766,1,-0.03145751953125,-0.003707999623467989,0.02320451236045479,-2.1631472790378736,1.5707963267948966,-0.0,0,0.0,0.0,0.0,0.04009687199140899
11.903876208001748,33.53865440803464,-1.5,-1.5,-1.4817886701619363,0.32677036224167866,-3.5,-3.5032163054797394,-0.14210198817137243,0.0,0.13618838787078857,-0.08650916237933909,-0.2979045742776015,-0.19551140454279334,-0.08650916237933909,0.0,0.0,0.0,-0.0400649256437402,-0.004766965157707247,0.0056804622142409816,0.007075872055426658,0.005599554735408033,-0.0,-0.09353760089412198,-0.0,0.007028438514782891,-2.2022564501664452,-2.1506100623816096,0.05164638778483566,0.05164638778483566,0.14889506583738765,45.62604904174805,0.0,-0.0,0,0.0,0.0,0.0,45.505008697509766,1,-0.036312103271484375,-0.005096091669590103,0.021700581321659758,-2.1506100623816096,1.5707963267948966,-0.0,0,0.0,0.0,0.0,0.03994066099403426
12.008023230009712,33.65883877416226,-1.5,-1.5,-1.4837872656429467,0.3267284035597468,-3.5,-3.500851900062816,-0.14674003111768844,0.0,0.12918925285339355,-0.08497985498758988,-0.30014697389730777,-0.19543766393766007,-0.08497985498758988,0.0,0.0,0.0,-0.03566801558551722,-0.006105170433867832,0.004378391259481298,0.0018741801381956691,0.005714329400801316,-0.0,-0.09239279175011084,-0.0,0.0074129367625209615,-2.188991947851288,-2.142295238211935,0.04669670963935291,0.04669670963935291,0.14429666847380113,45.63615798950195,0.0,-0.0,0,0.0,0.0,0.0,45.505008697509766,1,-0.03934478759765625,-0.006126543539425717,0.02067259774029079,-2.142295238211935,1.5707963267948966,-0.0,0,0.0,0.0,0.0,0.040069523005513474
12.104743264004355,33.839610480977,-1.5,-1.5,-1.4867917154916708,0.329084453980351,-3.5,-3.4974933119648073,-0.15363839951315586,0.0,0.11816444993019104,-0.081996369132456,-0.30479868218755274,-0.19748189535560226,-0.081996369132456,0.0,0.0,0.0,-0.029058225918324302,-0.007813177520192323,0.004472397846687941,-0.005514713677423977,0.005543688206295458,-0.0,-0.09029685175462009,-0.0,0.008300482622164079,-2.1699678590045504,-2.1298976111554744,0.04007024784907598,0.04007024784907598,0.14126800517476967,45.650299072265625,0.0,-0.0,0,0.0,0.0,0.0,45.505008697509766,1,-0.043587112426757814,-0.007814045864301273,0.01907085529688333,-2.1298976111554744,1.5707963267948966,-0.0,0,0.0,0.0,0.0,0.04022154299309477
12.202532025010441,33.95987217926595,-1.5,-1.5,-1.4884688657902905,0.3292001541429476,-3.5,-3.4957960463423463,-0.1572307399163106,0.0,0.11059582233428955,-0.07922238741465638,-0.3062855779956929,-0.19820038288110176,-0.07922238741465638,0.0,0.0,0.0,-0.02536849526136096,-0.008764372847248878,0.0034791943833829345,-0.009248698046838123,0.005239488195952111,-0.0,-0.08871390842322548,-0.0,0.00949152100856909,-2.15757602131539,-2.121672625238306,0.03590339607708426,0.03590339607708426,0.13846804153691622,45.659027099609375,0.0,-0.0,0,0.0,0.0,0.0,45.505008697509766,1,-0.04620552062988281,-0.00902827390386643,0.01797310282932965,-2.121672625238306,1.5707963267948966,-0.0,0,0.0,0.0,0.0,0.0401076519920025
12.303752250008984,34.140805898025334,-1.5,-1.5,-1.4910695893009513,0.33201156910675395,-3.5,-3.493609992781943,-0.16208388641166946,0.0,0.10009952634572983,-0.0783186358484959,-0.30944147467053223,-0.20186342414802677,-0.0783186358484959,0.0,0.0,0.0,-0.019646903537907035,-0.009944172942092268,0.004103446003658823,-0.014058015879725261,0.004554464937417619,-0.0,-0.08674279674643394,-0.0,0.008424160897938043,-2.1395991300198487,-2.10941581869253,0.030183311327318663,0.030183311327318663,0.13397776567917263,45.671165466308594,0.0,-0.0,0,0.0,0.0,0.0,45.505008697509766,1,-0.04984703063964844,-0.010976084042623608,0.016351313117278627,-2.10941581869253,1.5707963267948966,-0.0,0,0.0,0.0,0.0,0.040073216005112045
12.402463907012134,34.26124067038506,-1.5,-1.5,-1.4926981918115798,0.333450528427368,-3.5,-3.492891559667785,-0.16381936072413034,0.0,0.09334775060415268,-0.07735068727572818,-0.3100143101204351,-0.20473681978848934,-0.07735068727572818,0.0,0.0,0.0,-0.016063978014524416,-0.010559091688769411,0.003977577996043141,-0.015638568730872573,0.003997961994971215,-0.0,-0.08547654491509583,-0.0,0.008125857639367656,-2.1279054240314865,-2.1012818823335286,0.026623541697957886,0.026623541697957886,0.13140167766197075,45.67857360839844,0.0,-0.0,0,0.0,0.0,0.0,45.505008697509766,1,-0.05206947326660156,-0.012348482561755626,0.015304798240683483,-2.1012818823335286,1.5707963267948966,-0.0,0,0.0,0.0,0.0,0.039987473996006884
12.5117977020127,34.44212377651631,-1.5,-1.5,-1.4951339733920448,0.3357393815639477,-3.5,-3.492190497313681,-0.16569992514312906,0.0,0.08331923186779022,-0.0753728426239386,-0.31027553966952426,-0.20953874822611235,-0.0753728426239386,0.0,0.0,0.0,-0.010705258537501462,-0.01124462145483474,0.0036055660019707076,-0.017180905909902223,0.003077110203209971,-0.0,-0.08351508403516775,-0.0,0.008142241411229139,-2.1108011973619423,-2.089151363377958,0.021649833983984124,0.021649833983984124,0.12528694062503848,45.68877410888672,0.0,-0.0,0,0.0,0.0,0.0,45.505008697509766,1,-0.055129623413085936,-0.014513196828487736,0.013770245384084305,-2.089151363377958,1.5707963267948966,-0.0,0,0.0,0.0,0.0,0.0410918530105846
12.602706106001278,34.562506638897446,-1.5,-1.5,-1.4965028885202913,0.33683187837057044,-3.5,-3.4924110284778833,-0.16544134907594427,0.0,0.07674970477819443,-0.07365295659573445,-0.30888528295132933,-0.21311132360058288,-0.07365295659573445,0.0,0.0,0.0,-0.007693645255359051,-0.011547199544385817,0.0031777517706647594,-0.016695737348656703,0.00247036478222169,0.0,-0.08217832961967253,-0.0,0.008525373023938073,-2.099805623074378,-2.0810946751656516,0.018710947908726183,0.018710947908726183,0.12488862866372366,45.69487762451172,0.0,-0.0,0,0.0,0.0,0.0,45.505008697509766,1,-0.056960678100585936,-0.016021544614614813,0.012768044793940952,-2.0810946751656516,1.5707963267948966,-0.0,0,0.0,0.0,0.0,0.04015476300264709
12.703489234001609,34.74320647093139,-1.5,-1.5,-1.4984357706827027,0.339208383823043,-3.5,-3.4926313859814524,-0.16526582854596222,0.0,0.06653925031423569,-0.07045899727661493,-0.30728494058580813,-0.2189773664788227,-0.07045899727661493,0.0,0.0,0.0,-0.0034413044980539987,-0.011813116241176555,0.003358941752465801,-0.01621095084080473,0.0015784211224108336,0.0,-0.07985120215808951,-0.0,0.00939220488147458,-2.0837485939560296,-2.0690834479472726,0.014665146008757013,0.014665146008757013,0.12106915762286712,45.70310974121094,0.0,-0.0,0,0.0,0.0,0.0,45.505008697509766,1,-0.05943031311035156,-0.018364713477389372,0.01124893997182743,-2.0690834479472726,1.5707963267948966,-0.0,0,0.0,0.0,0.0,0.040088277994072996
12.803644341009203,34.86352562502415,-1.5,-1.5,-1.499630774868537,0.3402596772579648,-3.5,-3.4932060369786715,-0.16419030135982549,0.0,0.05994102731347084,-0.06906165316228004,-0.3050741307961632,-0.22285618175695784,-0.06906165316228004,0.0,0.0,0.0,-0.0008122952892188007,-0.011867411553559516,0.0029320856987249443,-0.01494671864692272,0.0010142923038941605,0.0,-0.07835986872538118,-0.0,0.00929821556310115,-2.073276618444064,-2.061104173620529,0.012172444823534967,0.012172444823534967,0.1172198385491093,45.70789337158203,0.0,-0.0,0,0.0,0.0,0.0,45.505008697509766,1,-0.06086540222167969,-0.020019817778782742,0.01022646610496462,-2.061104173620529,1.5707963267948966,-0.0,0,0.0,0.0,0.0,0.038826646996312775
12.904950070005725,35.04421066551477,-1.5,-1.5,-1.5014261513386329,0.34261143569036157,-3.5,-3.493962332815753,-0.16271425421580463,0.0,0.05089635029435158,-0.06857177075077732,-0.3021718429172148,-0.22923939831283435,-0.06857177075077732,0.0,0.0,0.0,0.0031375329449923497,-0.011767050048871209,0.0028874715401070532,-0.01328286780534347,0.00026313712588882425,0.0,-0.07640719563204812,-0.0,0.007835424881270796,-2.057917721026514,-2.0491993665422954,0.008718354484218427,0.008718354484218427,0.11446145915271501,45.714271545410156,0.0,-0.0,0,0.0,0.0,0.0,45.505008697509766,1,-0.06277885437011718,-0.022472725809436597,0.008802604420491815,-2.0491993665422954,1.5707963267948966,-0.0,0,0.0,0.0,0.0,0.04057444199861493
13.013721863011597,35.1646229527281,-1.5,-1.5,-1.5025922515862227,0.3444952953382866,-3.5,-3.4945550063182647,-0.16148131517738687,0.0,0.04533345252275467,-0.06776124191554628,-0.300105016655523,-0.2338593650889785,-0.06776124191554628,0.0,0.0,0.0,0.005702953489689877,-0.011584968782001307,0.0030988908221286516,-0.011978986099817757,-0.00017920730559800428,0.0,-0.07527234111474201,-0.0,0.0075110991991957365,-2.0479693442901463,-2.0412930580310293,0.006676286259116981,0.006676286259116981,0.11043049253654906,45.717891693115234,0.0,-0.0,0,0.0,0.0,0.0,45.505008697509766,1,-0.06386489868164062,-0.024164477569811268,0.007908926916303197,-2.0412930580310293,1.5707963267948966,-0.0,0,0.0,0.0,0.0,0.04013200299232267
13.105009716004133,35.34693349026382,-1.5,-1.5,-1.5041353350953184,0.3775423684411371,-3.5,-3.4951211555104638,-0.16049721010346432,0.0,0.036541227251291275,-0.0632353451254728,-0.3110488011204666,-0.26748128484187317,-0.0632353451254728,0.0,0.0,0.0,0.009097737209700441,-0.010608218911569989,0.03345365141586345,-0.010733457876979725,-0.001034153606832736,-0.0,-0.07317383079030061,-0.0,0.00993848566482782,-2.0331340456481946,-2.029395668634772,0.0037383770134225003,0.0037383770134225003,0.1068402015600094,45.722679138183594,0.0,-0.0,0,0.0,0.0,0.0,45.505008697509766,1,-0.06530113220214843,-0.02676448253222108,0.006650457335159773,-2.029395668634772,1.5707963267948966,-0.0,0,0.0,0.0,0.0,0.04066368799249176
13.20280198600085,35.46760360799452,-1.5,-1.5,-1.5027868208307409,0.3361240191257823,-3.5,-3.4956287351592046,-0.1591244877631124,0.0,0.030875513330101967,-0.0628513613754442,-0.28966228290548046,-0.23322890194212126,-0.0628513613754442,0.0,0.0,0.0,0.006131005827629954,-0.010358526910826666,-0.004171884297672489,-0.009616782649749923,-0.0013955052654314,0.0,-0.07180146533001046,-0.0,0.008950103954566264,-2.0233602018370265,-2.0215537475389436,0.0018064542980829046,0.0018064542980829046,0.10664039843420435,45.726219177246094,0.0,-0.0,0,0.0,0.0,0.0,45.505008697509766,1,-0.06604270935058594,-0.02850374183344718,0.005752855630784335,-2.0215537475389436,1.5707963267948966,-0.0,0,0.0,0.0,0.0,0.04051813800469972
13.30437169400102,35.64779029832204,-1.5,-1.5,-1.5008109940695948,0.3326269936312261,-3.5,-3.4964006872525433,-0.15696088615706488,0.0,0.02288949117064476,-0.061839246290473826,-0.2834692578598246,-0.2343557477933048,-0.061839246290473826,0.0,0.0,0.0,0.0017841869531086464,-0.010195750716436427,-0.001894838014122614,-0.007918488044404804,-0.0018401017799164886,-0.0,-0.0699400144123058,-0.0,0.008100768121831971,-2.009572100746271,-2.0098556452113043,-0.00028354446503353614,-0.00028354446503353614,0.10278101923297085,45.72826385498047,0.0,-0.0,0,0.0,0.0,0.0,45.505008697509766,1,-0.06697654724121094,-0.03117667245468019,0.004476020179359551,-2.0098556452113043,1.5707963267948966,-0.0,0,0.0,0.0,0.0,0.040443271995172836
13.402386503003072,35.76756757826898,-1.5,-1.5,-1.5004816735514028,0.33304487286741563,-3.5,-3.496477866904332,-0.15655693961484993,0.0,0.01731567271053791,-0.05936672951120326,-0.2814521331490864,-0.23709419948760813,-0.05936672951120326,0.0,0.0,0.0,0.0010596818130862219,-0.01015552068227895,0.0003406313425607951,-0.007748692810469749,-0.002127851225689342,0.0,-0.06844413805253542,-0.0,0.009077408541332162,-2.0008454544862992,-2.0021051432634764,-0.0012596887771771925,-0.0012596887771771925,0.10195964001140431,45.729766845703125,0.0,-0.0,0,0.0,0.0,0.0,45.505008697509766,1,-0.06742744445800782,-0.03297247833967473,0.003642032087328096,-2.0021051432634764,1.5707963267948966,-0.0,0,0.0,0.0,0.0,0.0399687220051419
13.510784748010337,35.94606083572839,-1.5,-1.5,-1.501491151630262,0.3360225172849625,-3.5,-3.4965084349692064,-0.1562676000130674,0.0,0.009555894881486893,-0.05832100213647462,-0.2796574332486431,-0.24315101267555458,-0.05832100213647462,0.0,0.0,0.0,0.003280533586576473,-0.01002830450806543,0.002661498771051897,-0.007681443067745964,-0.0025346465809742494,-0.0,-0.06643434229163277,-0.0,0.008113340155158145,-1.9879300180215413,-1.990609270894414,-0.0026792528728725173,-0.0026792528728725173,0.10040289453459476,45.73136901855469,0.0,-0.0,0,0.0,0.0,0.0,45.505008697509766,1,-0.06790809631347657,-0.03568441904398282,0.002424506419558331,-1.990609270894414,1.5707963267948966,-0.0,0,0.0,0.0,0.0,0.041073036001762375
13.602187116004643,36.06591954768846,-1.5,-1.5,-1.5027538453846607,0.33884307134114783,-3.5,-3.4965426657038456,-0.1561135842186022,0.0,0.004458168987184763,-0.056383198282679875,-0.2787722120558287,-0.24793574159241522,-0.056383198282679875,0.0,0.0,0.0,0.0060584598462535945,-0.009837324806716105,0.003636801126513064,-0.007606135451539587,-0.002817473235168698,0.0,-0.06503051696316643,-0.0,0.008647318680486559,-1.9792033717615698,-1.9829361814232853,-0.0037328096617157414,-0.0037328096617157414,0.09668735482088582,45.73191833496094,0.0,-0.0,0,0.0,0.0,0.0,45.505008697509766,1,-0.06807289123535155,-0.03749665966090649,0.0016435249448320775,-1.9829361814232853,1.5707963267948966,-0.0,0,0.0,0.0,0.0,0.04010991399991326
13.703992187001859,36.24584850831906,-1.5,-1.5,-1.5047924893427909,0.34195376720339904,-3.5,-3.4973559671492973,-0.15417097688125442,0.0,-0.0023838335182517767,-0.05575540057370491,-0.27533353204309663,-0.2547400933300248,-0.05575540057370491,0.0,0.0,0.0,0.010543476554139897,-0.009341967413442835,0.0032929554298099816,-0.005816872271545926,-0.003156924559790482,0.0,-0.06325832398664719,-0.0,0.00750292341294228,-1.9666370011472107,-1.9714618235352623,-0.004824822388051597,-0.004824822388051597,0.0948469596721547,45.73209762573242,0.0,-0.0,0,0.0,0.0,0.0,45.505008697509766,1,-0.06812667846679688,-0.040223301910912966,0.0005356068817127468,-1.9714618235352623,1.5707963267948966,-0.0,0,0.0,0.0,0.0,0.04012470900488552
13.802726823007106,36.365810884338394,-1.5,-1.5,-1.506039132315347,0.34408510729294656,-3.5,-3.4979876599841377,-0.1526309048810178,0.0,-0.0070778182707726955,-0.0538362896445498,-0.2727806965548456,-0.25938667231114637,-0.0538362896445498,0.0,0.0,0.0,0.013286091093763464,-0.008884943588876787,0.003216344413891912,-0.004427148034896966,-0.0033394963722506053,0.0,-0.06188998337632767,-0.0,0.008053693731777872,-1.9584339536628372,-1.9638517887988858,-0.005417835136048765,-0.005417835136048765,0.09486620825721269,45.73171615600586,0.0,-0.0,0,0.0,0.0,0.0,45.505008697509766,1,-0.06801223754882812,-0.04203786350527017,-0.00017768951055385624,-1.9638517887988858,1.5707963267948966,-0.0,0,0.0,0.0,0.0,0.039983698006835766
13.904450569010805,36.546940420785404,-1.5,-1.5,-1.5071923011275683,0.34286815915025093,-3.5,-3.499065761755831,-0.14982230025245213,0.0,-0.013683037832379341,-0.0524406847971827,-0.2667334646486412,-0.2624091367474649,-0.0524406847971827,0.0,0.0,0.0,0.015823062480650265,-0.008048879252568057,8.751398237062362e-05,-0.0020553241371714217,-0.0034658412859995993,-0.0,-0.05996523120262437,-0.0,0.007524546405441664,-1.9460421159736774,-1.9524030929268266,-0.006360976953149411,-0.006360976953149411,0.09189071797534536,45.73054122924805,0.0,-0.0,0,0.0,0.0,0.0,45.505008697509766,1,-0.06765975952148437,-0.04475125748139468,-0.0012140728338742416,-1.9524030929268266,1.5707963267948966,-0.0,0,0.0,0.0,0.0,0.04005345000769012
14.00842787300644,36.66689628374526,-1.5,-1.5,-1.507512963994178,0.3436263854853954,-3.5,-3.4999970005428818,-0.1473904516663272,0.0,-0.01821509376168251,-0.04972090520191527,-0.2627536907529272,-0.2660141651113275,-0.04972090520191527,0.0,0.0,0.0,0.016528520787191605,-0.00745168795533312,0.00046130834146828226,-6.598805660118502e-06,-0.0034859125651816375,0.0,-0.05850586549724764,-0.0,0.008784960295332375,-1.9380136014145033,-1.9448367004010747,-0.00682309898657163,-0.00682309898657163,0.0900141850617921,45.728519439697266,0.0,-0.0,0,0.0,0.0,0.0,45.505008697509766,1,-0.06728324890136718,-0.04655263026558038,-0.0018889904234810151,-1.9448367004010747,1.5707963267948966,-0.0,0,0.0,0.0,0.0,0.04001953000260983
14.10418044400285,36.846484557146645,-1.5,-1.5,-1.507130442045136,0.3399061238168573,-3.5,-3.5009084870218166,-0.1445832571526033,0.0,-0.024620220065116882,-0.04786641544535277,-0.2557905556987421,-0.26648017350712083,-0.04786641544535277,0.0,0.0,0.0,0.015686972499299002,-0.006567660644477093,-0.0018462840255212562,0.0019986714479964364,-0.00338439377413619,-0.0,-0.05641339390001186,-0.0,0.00854697845465909,-1.9263198954261416,-1.9335522727440755,-0.0072323773179339135,-0.0072323773179339135,0.08729433780988607,45.72684097290039,0.0,-0.0,0,0.0,0.0,0.0,45.505008697509766,1,-0.0665496826171875,-0.049215245449677425,-0.002877615164938408,-1.9335522727440755,1.5707963267948966,-0.0,0,0.0,0.0,0.0,0.04048282299481798
14.20247705001384,36.966219060392156,-1.5,-1.5,-1.5067682167183376,0.33956156065533083,-3.5,-3.5017840992464495,-0.1420739849504435,0.0,-0.028617827221751213,-0.042521313774742574,-0.251309401330951,-0.26894359162668613,-0.042521313774742574,0.0,0.0,0.0,0.014890076780342732,-0.006021626127325663,-0.0010284506393598587,0.0039250183421889245,-0.0032639030668256456,0.0,-0.05448750689562021,-0.0,0.011966193120877636,-1.9188149796425658,-1.9260413363845363,-0.007226356741970363,-0.007226356741970363,0.08972271661830883,45.724735260009766,0.0,-0.0,0,0.0,0.0,0.0,45.505008697509766,1,-0.06591796875,-0.05,-0.00351236996445156,-1.9260413363845363,1.5707963267948966,-0.0,0,0.0,0.0,0.0,0.039678829998592846
14.303759143003845,37.14561245200567,-1.5,-1.5,-1.506047356657204,0.3362519826667798,-3.5,-3.5025066312642394,-0.13945534221570904,0.0,-0.03445596992969513,-0.03698132093119568,-0.24469958189114488,-0.2695093744976968,-0.03698132093119568,0.0,0.0,0.0,0.013304184645848595,-0.005258684573125401,-0.002049283625988185,0.005514588781326779,-0.002962826914275798,-0.0,-0.05088356434188646,-0.0,0.013902243410690782,-1.9074703395046027,-1.9148396525558338,-0.007369313051230897,-0.007369313051230897,0.08576514939704764,45.72113800048828,0.0,-0.0,0,0.0,0.0,0.0,45.505008697509766,1,-0.06483879089355468,-0.05,-0.004423119605951216,-1.9148396525558338,1.5707963267948966,-0.0,0,0.0,0.0,0.0,0.039900763003970496
14.40247234000708,37.26528458879282,-1.5,-1.5,-1.5057285753576095,0.336573830458557,-3.5,-3.5032829849345952,-0.13704715241990997,0.0,-0.03789252042770386,-0.03466813149605796,-0.24051671025442073,-0.27242536119888416,-0.03466813149605796,0.0,0.0,0.0,0.012602865786740925,-0.004795021003739187,-0.0005751640824485921,0.007222566856109492,-0.0027172433943103307,0.0,-0.048657292513310746,-0.0,0.013989161017252782,-1.9001399566462267,-1.9073841552803394,-0.007244198634112742,-0.007244198634112742,0.08681795388311003,45.718345642089844,0.0,-0.0,0,0.0,0.0,0.0,45.505008697509766,1,-0.06400108337402344,-0.05,-0.004986924575865004,-1.9073841552803394,1.5707963267948966,-0.0,0,0.0,0.0,0.0,0.03999235499941278
14.513978211005451,37.444616692775824,-1.5,-1.5,-1.5052491482474903,0.3337142668072083,-3.5,-3.503898012543859,-0.13452438987632365,0.0,-0.042270760983228683,-0.03282423181565248,-0.23416698949585077,-0.27318097366529726,-0.03282423181565248,0.0,0.0,0.0,0.011548126144478756,-0.004134411930994771,-0.0015783888050124426,0.008575627596489355,-0.0022456046155096866,-0.0,-0.04566505469719076,-0.0,0.012840822881538282,-1.8891443823586624,-1.8962609677881406,-0.007116585429478128,-0.007116585429478128,0.08541937980214222,45.71377944946289,0.0,-0.0,0,0.0,0.0,0.0,45.505008697509766,1,-0.06263122558593749,-0.05,-0.005747959892609116,-1.8962609677881406,1.5707963267948966,-0.0,0,0.0,0.0,0.0,0.03841910700430162
14.602445729004103,37.564262563705675,-1.5,-1.5,-1.5050887746954715,0.333237819617933,-3.5,-3.5046117243978516,-0.13217985377232475,0.0,-0.04541357606649399,-0.02428553556001576,-0.22976215378632675,-0.27518777380991244,-0.02428553556001576,0.0,0.0,0.0,0.01119530433003737,-0.0037222577752526356,-0.0012030016391284468,0.010145793675273573,-0.0019062326617541293,0.0,-0.04341771708080822,-0.0,0.019132181520792463,-1.8819885324254857,-1.8888574617676364,-0.006868929342150665,-0.006868929342150665,0.08710757753650565,45.708560943603516,0.0,-0.0,0,0.0,0.0,0.0,45.505008697509766,1,-0.06160812377929687,-0.05,-0.006168314088544149,-1.8888574617676364,1.5707963267948966,-0.0,0,0.0,0.0,0.0,0.03999335000116844
14.704047336010262,37.7432503630139,-1.5,-1.5,-1.5046317990114821,0.3311169559056207,-3.5,-3.5050019030440436,-0.13001522778058486,0.0,-0.04952534660696983,-0.02766357330298519,-0.2240042263845794,-0.2763412826649109,-0.02766357330298519,0.0,0.0,0.0,0.01018995782526071,-0.0031408007425799645,-0.0014218774022152743,0.011004186696895868,-0.0012927807564016478,-0.0,-0.040396104877583036,-0.0,0.012732531574597845,-1.87134202398832,-1.8778118812280926,-0.0064698572397725584,-0.0064698572397725584,0.08574906828097204,45.70492935180664,0.0,-0.0,0,0.0,0.0,0.0,45.505008697509766,1,-0.0599761962890625,-0.05,-0.006875991780545739,-1.8778118812280926,1.5707963267948966,-0.0,0,0.0,0.0,0.0,0.039967178003280424
14.802270043001045,37.86263922676277,-1.5,-1.5,-1.5047207470496329,0.33268748172105056,-3.5,-3.505534154257724,-0.12800214531366508,0.0,-0.052118588238954544,-0.025491628212548433,-0.22050715419913144,-0.28007517677544264,-0.025491628212548433,0.0,0.0,0.0,0.010385643509192334,-0.0027654854375449667,0.0005054347364602335,0.012175139366992483,-0.0008618518654454029,0.0,-0.03837575397490809,-0.0,0.01288412576235966,-1.8641861740551435,-1.8704612323383314,-0.00627505828318764,-0.00627505828318764,0.08536583119459426,45.700950622558594,0.0,-0.0,0,0.0,0.0,0.0,45.505008697509766,1,-0.05878257751464844,-0.05,-0.007295600682486256,-1.8704612323383314,1.5707963267948966,-0.0,0,0.0,0.0,0.0,0.04038331199262757
14.903365022008074,38.041526736134756,-1.5,-1.5,-1.504849496535844,0.33067523122030895,-3.5,-3.505661090778621,-0.1263827415108812,0.0,-0.055661652237176895,-0.023562424582231206,-0.2152980725165261,-0.2810079106806064,-0.023562424582231206,0.0,0.0,0.0,0.010668892378857021,-0.0021813194398956886,-0.0008713968570859184,0.012454399712966158,-0.00015994343219197734,-0.0,-0.035477970560206636,-0.0,0.011915545977975431,-1.8535396656179777,-1.8594977324008497,-0.005958066782872251,-0.005958066782872251,0.0838678515388463,45.694705963134766,0.0,-0.0,0,0.0,0.0,0.0,45.505008697509766,1,-0.0569091796875,-0.05,-0.007882423483354628,-1.8594977324008497,1.5707963267948966,-0.0,0,0.0,0.0,0.0,0.04021027500857599
15.007350893007242,38.16095381361317,-1.5,-1.5,-1.504901532614849,0.3315568873342915,-3.5,-3.505908189829356,-0.1249536449074483,0.0,-0.05794640630483627,-0.02133968227177649,-0.21211448068666183,-0.28381478114694536,-0.02133968227177649,0.0,0.0,0.0,0.010783371752667659,-0.001791726026621252,0.00047181869364701476,0.012998017624583282,0.00030606115722860047,0.0,-0.03351900844924322,-0.0,0.012179326177466733,-1.8463838156848011,-1.8522031326996948,-0.005819317014893688,-0.005819317014893688,0.08398583925988744,45.68791961669922,0.0,-0.0,0,0.0,0.0,0.0,45.505008697509766,1,-0.05556564331054687,-0.05,-0.008245777076361422,-1.8522031326996948,1.5707963267948966,-0.0,0,0.0,0.0,0.0,0.03983611699368339
15.103583727002842,38.339859732670945,-1.5,-1.5,-1.5046493940723857,0.32756968747846354,-3.5,-3.5053500687560653,-0.12479089657771497,0.0,-0.06038275733590126,-0.020749208072421026,-0.2077912604593831,-0.28230738584052145,-0.020749208072421026,0.0,0.0,0.0,0.010228666959248622,-0.0012071024327611492,-0.0019402458162980582,0.011770151263343555,0.0010065617887426307,-0.0,-0.03109320278239501,-0.0,0.010343994709973986,-1.835737307247636,-1.8413215139034809,-0.005584206655845136,-0.005584206655845136,0.08291409067040381,45.683345794677734,0.0,-0.0,0,0.0,0.0,0.0,45.505008697509766,1,-0.053501129150390625,-0.05,-0.008703632822835648,-1.8413215139034809,1.5707963267948966,-0.0,0,0.0,0.0,0.0,0.0403559319966007
15.202476739010308,38.46051990394756,-1.5,-1.5,-1.5043878572738099,0.32624645225682014,-3.5,-3.5049659239948325,-0.12475470917093304,0.0,-0.06210009753704071,-0.014220250707628598,-0.20534141440437043,-0.28255156803829334,-0.014220250707628598,0.0,0.0,0.0,0.009653286002381689,-0.0008471756066904433,-0.001972556327593895,0.010925032788631573,0.001417421297323805,-0.0,-0.029329353478385962,-0.0,0.015109102770757363,-1.8285814573144592,-1.8340064992233764,-0.0054250419089170165,-0.0054250419089170165,0.08269905708303993,45.67844772338867,0.0,-0.0,0,0.0,0.0,0.0,45.505008697509766,1,-0.05203170776367187,-0.05,-0.008950645570678775,-1.8340064992233764,1.5707963267948966,-0.0,0,0.0,0.0,0.0,0.039776323988917284
15.303383279009722,38.639779264880154,-1.5,-1.5,-1.5034742225238946,0.32379768267061365,-3.5,-3.50374632753421,-0.12616463509773979,0.0,-0.06422118842601776,-0.016722987320614918,-0.2030259565829552,-0.28203353595943376,-0.016722987320614918,0.0,0.0,0.0,0.007643289552568168,-0.00038713938468969595,-0.0011683137040567862,0.008241920575262008,0.001924251229364852,-0.0,-0.026945044120983603,-0.0,0.010222056800368686,-1.8181094818024928,-1.8231863494652456,-0.0050768676627530596,-0.0050768676627530596,0.08141474060185858,45.67098617553711,0.0,-0.0,0,0.0,0.0,0.0,45.505008697509766,1,-0.049793243408203125,-0.05,-0.009336351886120637,-1.8231863494652456,1.5707963267948966,-0.0,0,0.0,0.0,0.0,0.03989017200365197
15.402319978005835,38.699597988543694,-1.5,-1.5,-1.5031337318092388,0.32478031649573796,-3.5,-3.503499182989378,-0.12617648309589938,0.0,-0.06487883627414703,-0.02161059362561496,-0.20226205194204316,-0.2837125679516432,-0.02161059362561496,0.0,0.0,0.0,0.006894209980325395,-0.00013574248153619417,0.0008478429816696728,0.007698202576631631,0.0022049656684574306,0.0,-0.026201776833597566,-0.0,0.004591183207982605,-1.8111281647945159,-1.819583850358973,-0.008455685564457305,-0.008455685564457305,0.04332476033145971,45.66577911376953,0.0,-0.0,0,0.0,0.0,0.0,45.505008697509766,1,-0.049018478393554686,-0.05,-0.0095299859365883,-1.819583850358973,1.5707963267948966,-0.0,0,0.0,0.0,0.0,0.040159643001970835
15.517921989012393,38.936954886756645,-1.5,-1.5,-1.5013221446286256,0.3152247838201547,-3.5,-3.5017200376286777,-0.1287363533452876,0.0,-0.06719943135976791,-0.013435832231749077,-0.1984686660976267,-0.2766765287922608,-0.013435832231749077,0.0,0.0,0.0,0.0029087181829762446,9.861520994660565e-05,-0.0027029961663150312,0.003784082783090881,0.0024980791117492334,-0.0,-0.02311836634917479,-0.0,0.009682534117425715,-1.801179788058148,-1.805336640069206,-0.004156852011058199,-0.004156852011058199,0.0832081964595489,45.6579704284668,0.0,-0.0,0,0.0,0.0,0.0,45.505008697509766,1,-0.045888519287109374,-0.05,-0.009841522654616536,-1.805336640069206,1.5707963267948966,-0.0,0,0.0,0.0,0.0,0.03978497399657499
15.60291149900877,39.05606014285374,-1.5,-1.5,-1.5002812458908994,0.3074692736548903,-3.5,-3.5010504326598624,-0.1295621593831329,0.0,-0.06821436434984207,-0.009121221026622082,-0.1955485202033171,-0.270341420489312,-0.009121221026622082,0.0,0.0,0.0,0.0006187409599786698,0.0001652189369885143,-0.0071546917929335985,0.0023109518516972296,0.0026146042650369385,-0.0,-0.021639723742557185,-0.0,0.012518502715935104,-1.7943730039753703,-1.7982124179095123,-0.0038394139341422218,-0.0038394139341422218,0.08273599043474027,45.6525993347168,0.0,-0.0,0,0.0,0.0,0.0,45.505008697509766,1,-0.044277191162109375,-0.05,-0.010003379425328003,-1.7982124179095123,1.5707963267948966,-0.0,0,0.0,0.0,0.0,0.043645433004712686
15.704706044009072,39.23410617126917,-1.5,-1.5,-1.4985132012959648,0.3077909392518104,-3.5,-3.4997936157143026,-0.1314749513693403,0.0,-0.06971322745084763,-0.009451262459540104,-0.1946036979761261,-0.2723055744142942,-0.009451262459540104,0.0,0.0,0.0,-0.0032709571488775072,7.905999570065127e-05,-0.001208686427871688,-0.000454045428534311,0.002650724351098444,-0.0,-0.01941183267079336,-0.0,0.009960570211253255,-1.7844246272390027,-1.7875923059189824,-0.0031676786799796908,-0.0031676786799796908,0.0808893418639201,45.6444206237793,0.0,-0.0,0,0.0,0.0,0.0,45.505008697509766,1,-0.04182357788085937,-0.05,-0.010242704021310514,-1.7875923059189824,1.5707963267948966,-0.0,0,0.0,0.0,0.0,0.039503395004430786
15.8043818520091,39.29345289550251,-1.5,-1.5,-1.498057158911533,0.30849061640226566,-3.5,-3.499582267391522,-0.13172303633295002,0.0,-0.070158950984478,-0.014277661127171121,-0.19403115196777762,-0.27362260647665554,-0.014277661127171121,0.0,0.0,0.0,-0.004274250394627366,-7.760892417997684e-05,0.0011601178786301537,-0.0009190117386515873,0.0026170387774518593,0.0,-0.018729020103225212,-0.0,0.004451358976054091,-1.7811085016602135,-1.7840599296413286,-0.002951427981114918,-0.002951427981114918,0.0795740139801477,45.63885498046875,0.0,-0.0,0,0.0,0.0,0.0,45.505008697509766,1,-0.04099273681640625,-0.05,-0.010381247673447107,-1.7840599296413286,1.5707963267948966,-0.0,0,0.0,0.0,0.0,0.03931000399461482
15.903399065005942,39.53172131663776,-1.5,-1.5,-1.4965940332836767,0.3010475657544582,-3.5,-3.498976787700463,-0.13218476432449364,0.0,-0.07147049158811569,-0.007573768430357895,-0.1891244465181447,-0.2689505391245985,-0.007573768430357895,0.0,0.0,0.0,-0.007493126775911297,-0.000437358234534355,-0.0007185208264271123,-0.0022510670589815265,0.0025307542853665096,0.0,-0.016041863041222643,-0.0,0.008468094610864748,-1.767669466419857,-1.7699247413066177,-0.0022552748867608052,-0.0022552748867608052,0.08068237705279763,45.63044357299805,0.0,-0.0,0,0.0,0.0,0.0,45.505008697509766,1,-0.037630462646484376,-0.05,-0.010576467343669042,-1.7699247413066177,1.5707963267948966,-0.0,0,0.0,0.0,0.0,0.04021695599658415
16.02466795600776,39.59098223997935,-1.5,-1.5,-1.4964370177225876,0.29953292659162783,-3.5,-3.4989362985702357,-0.13214517838426665,0.0,-0.07172338664531708,-0.008669304896285677,-0.18784780809402202,-0.26813340574614464,-0.008669304896285677,0.0,0.0,0.0,-0.0078385610103072,-0.0007212945380001178,-0.0011330700312629438,-0.002340143145481477,0.002445732577388231,-0.0,-0.015434308694683548,-0.0,0.00676500379839787,-1.7643533408410679,-1.7664213694728967,-0.0020680286318288665,-0.0020680286318288665,0.08203695293104663,45.62482452392578,0.0,-0.0,0,0.0,0.0,0.0,45.505008697509766,1,-0.036789321899414064,-0.05,-0.010657912570375584,-1.7664213694728967,1.5707963267948966,-0.0,0,0.0,0.0,0.0,0.041572601010557264
16.108775984001113,39.709647652502575,-1.5,-1.5,-1.4963842453662282,0.29915690157130864,-3.5,-3.499203616709626,-0.13127227139148917,0.0,-0.07243999093770981,-0.010350067271874652,-0.18503749644472106,-0.2692366726571555,-0.010350067271874652,0.0,0.0,0.0,-0.007954660194298047,-0.0011605677279723664,-7.676491979307822e-05,-0.0017520432388225871,0.002340754578637448,-0.0,-0.014060289712953694,-0.0,0.003710222441079043,-1.7577210896834894,-1.7594181798130937,-0.001697090129604284,-0.001697090129604284,0.07997033545505239,45.62199020385742,0.0,-0.0,0,0.0,0.0,0.0,45.505008697509766,1,-0.03509445190429687,-0.05,-0.010779355221669088,-1.7594181798130937,1.5707963267948966,-0.0,0,0.0,0.0,0.0,0.04180907900445163
16.202308399006142,39.88666463709669,-1.5,-1.5,-1.495798195923164,0.29766684657337805,-3.5,-3.4983996688348586,-0.1324980587369235,0.0,-0.07318059355020523,-0.0037002556680123377,-0.18316765611819397,-0.2694640919865934,-0.0037002556680123377,0.0,0.0,0.0,-0.009243968969038986,-0.0014861353149753852,0.0015575509161618508,-0.0035207285633109824,0.0022168912753903775,0.0,-0.012147723031518497,-0.0,0.00844746736350616,-1.747598180021922,-1.7490106189772159,-0.0014124389552936378,-0.0014124389552936378,0.07932016890869908,45.61064910888672,0.0,-0.0,0,0.0,0.0,0.0,45.505008697509766,1,-0.03255729675292968,-0.05,-0.010869501849806364,-1.7490106189772159,1.5707963267948966,-0.0,0,0.0,0.0,0.0,0.03969406700343825
16.303729653009214,40.122915214724834,-1.5,-1.5,-1.4959927278049476,0.2949073774973822,-3.5,-3.498541146178344,-0.13159736684668086,0.0,-0.07389534264802933,-0.002122625409785704,-0.17808559560323817,-0.2693951538205603,-0.002122625409785704,0.0,0.0,0.0,-0.008815998829115212,-0.0019630742812765836,0.0006291015592441656,-0.0032094784076432074,0.002056075679711729,0.0,-0.009740710269086222,-0.0,0.007618084859300518,-1.7343336777067653,-1.7351885963130915,-0.0008549186063264713,-0.0008549186063264713,0.08141062958334366,45.60206985473633,0.0,-0.0,0,0.0,0.0,0.0,45.505008697509766,1,-0.02911834716796875,-0.05,-0.011011512595204269,-1.7351885963130915,1.5707963267948966,-0.0,0,0.0,0.0,0.0,0.040148197003873065
16.402427434004494,40.182026590256974,-1.5,-1.5,-1.496144968969047,0.2950294752956766,-3.5,-3.498733909740124,-0.13111052519772595,0.0,-0.0739232748746872,-0.003183975617196415,-0.17669544490998423,-0.2702056269934594,-0.003183975617196415,0.0,0.0,0.0,-0.008481068268096782,-0.002276706138865336,0.0011450997187563176,-0.0027853985717267273,0.001947375311181292,0.0,-0.009226961846248079,-0.0,0.006042986229051664,-1.727701426549187,-1.731743424708167,-0.004041998158979876,-0.004041998158979876,0.046747822584612644,45.596282958984375,0.0,-0.0,0,0.0,0.0,0.0,45.505008697509766,1,-0.028253173828125,-0.05,-0.011048370790309,-1.731743424708167,1.5707963267948966,-0.0,0,0.0,0.0,0.0,0.03988504099834245
16.50914154900238,40.359306942087784,-1.5,-1.5,-1.4967264611366509,0.29365871469853727,-3.5,-3.499418815538724,-0.12916947427657519,0.0,-0.07453367859125137,-0.0032335757751907395,-0.17177863201293425,-0.2709470342835453,-0.0032335757751907395,0.0,0.0,0.0,-0.007201785499368097,-0.0026710964947754506,0.00010884307309236617,-0.0012786058148071433,0.0018852138513377069,0.0,-0.007340353173795991,-0.0,0.004106777398605251,-1.7210691753916085,-1.7214449615501635,-0.00037578615855515807,-0.00037578615855515807,0.08032715058025132,45.590476989746094,0.0,-0.0,0,0.0,0.0,0.0,45.505008697509766,1,-0.025640487670898438,-0.05,-0.011127112876679586,-1.7214449615501635,1.5707963267948966,-0.0,0,0.0,0.0,0.0,0.04069325698947068
16.602560312006972,40.53681151047151,-1.5,-1.5,-1.4974671757840812,0.29539117275062365,-3.5,-3.500337172396432,-0.12667115980662896,0.0,-0.07470058649778366,0.001925257797966113,-0.1667590157253494,-0.27475981936967786,0.001925257797966113,0.0,0.0,0.0,-0.005572213275021421,-0.002885150202871859,0.0015958462927234637,0.0007417792721500228,0.0018927419683476773,0.0,-0.005684453798588773,-0.0,0.007609711596554886,-1.7109462657300414,-1.711187177275028,-0.00024091154498684375,-0.00024091154498684375,0.08128592374878876,45.58170700073242,0.0,-0.0,0,0.0,0.0,0.0,45.505008697509766,1,-0.023009490966796876,-0.05,-0.011165185195301412,-1.711187177275028,1.5707963267948966,-0.0,0,0.0,0.0,0.0,0.03882843400060665
16.703716248011915,40.65487474308142,-1.5,-1.5,-1.497728085883486,0.29263453856192445,-3.5,-3.500778267316921,-0.1252880225516242,0.0,-0.07449547946453094,-0.0012346225691546881,-0.16314725355341042,-0.2733405118386697,-0.0012346225691546881,0.0,0.0,0.0,-0.0049982110563306925,-0.003169054630326169,-0.0006490931989400563,0.0017121880972261751,0.0019686760233035183,-0.0,-0.00476648443872519,-0.0,0.0035318618695705023,-1.704314014572463,-1.7043814184538988,-6.740388143589016e-05,-6.740388143589016e-05,0.07990818773367361,45.575889587402344,0.0,-0.0,0,0.0,0.0,0.0,45.505008697509766,1,-0.021264266967773438,-0.05,-0.011175353227966157,-1.7043814184538988,1.5707963267948966,-0.0,0,0.0,0.0,0.0,0.04019609199895058
16.80324940000719,40.772989393046686,-1.5,-1.5,-1.498095287249806,0.2946222298540508,-3.5,-3.501419518250094,-0.12346125384371896,0.0,-0.07432189583778381,0.0016688951450258708,-0.15972574106115683,-0.2766453093173651,0.0016688951450258708,0.0,0.0,0.0,-0.00419036805042703,-0.0033324772453913413,0.0014573202099898255,0.003122940150206333,0.002066173738726101,0.0,-0.0038202934318343927,-0.0,0.005489188576860263,-1.6975072304896848,-1.6975876784679256,-8.044797824080518e-05,-8.044797824080518e-05,0.07910572727380127,45.56715774536133,0.0,-0.0,0,0.0,0.0,0.0,45.505008697509766,1,-0.01952362060546875,-0.05,-0.011165430952039052,-1.6975876784679256,1.5707963267948966,-0.0,0,0.0,0.0,0.0,0.04060788000060711
16.905201728004613,40.950055874326736,-1.5,-1.5,-1.4986673976061833,0.29103448309083835,-3.5,-3.5025808078812792,-0.12015771081816191,0.0,-0.07439093291759491,0.004258027132580996,-0.15320846291165538,-0.2750747402239261,0.004258027132580996,0.0,0.0,0.0,-0.002931725266396779,-0.0034958257381442646,-0.0021241826704353514,0.005677777338814316,0.0023500186067334805,-0.0,-0.0021998801344618873,-0.0,0.006457907267042883,-1.6875588537533173,-1.6874285110882143,0.0001303426651029227,0.0001303426651029227,0.08033261607287993,45.56133270263672,0.0,-0.0,0,0.0,0.0,0.0,45.505008697509766,1,-0.016897201538085938,-0.05,-0.011160198270278787,-1.6874285110882143,1.5707963267948966,-0.0,0,0.0,0.0,0.0,0.040257407003082335
17.01318830200762,41.06794543997267,-1.5,-1.5,-1.4989536532996826,0.2942461650207199,-3.5,-3.503269101405081,-0.11807970023006484,0.0,-0.07424550503492355,0.004972616331812145,-0.14963535935851008,-0.27952259383719275,0.004972616331812145,0.0,0.0,0.0,-0.0023019627406983822,-0.0035877368200942093,0.001292222286371312,0.007192023091178613,0.002595350665171608,0.0,-0.0012354084512616436,-0.0,0.0062080247830737885,-1.6807520696705396,-1.6806799720972998,7.209757323956012e-05,7.209757323956012e-05,0.12207762508065614,45.552608489990234,0.0,-0.0,0,0.0,0.0,0.0,45.505008697509766,1,-0.015154266357421875,-0.05,-0.01115025276293776,-1.6806799720972998,1.5707963267948966,-0.0,0,0.0,0.0,0.0,0.03839208101271652
17.104519936008728,41.24479433812688,-1.5,-1.5,-1.499484624867457,0.29225535402599934,-3.5,-3.5039981716175994,-0.11553029044407395,0.0,-0.07378923892974854,0.0038003230151462866,-0.144070664963791,-0.2792921113526936,0.0038003230151462866,0.0,0.0,0.0,-0.001133825291594759,-0.0036595830818979902,-0.0006373670558713284,0.008795977558718705,0.003064144974664527,-0.0,7.95984990534182e-05,-0.0,0.0037207245160928684,-1.6708036929341714,-1.670583972002108,0.00021972093206334975,0.00021972093206334975,0.07932929084403532,45.546844482421875,0.0,-0.0,0,0.0,0.0,0.0,45.505008697509766,1,-0.012550735473632812,-0.05,-0.011105839291026688,-1.670583972002108,1.5707963267948966,-0.0,0,0.0,0.0,0.0,0.039631571009522304
17.20421474800969,41.36267380005376,-1.5,-1.5,-1.4998493361178262,0.29425021560076925,-3.5,-3.504169430032641,-0.11449846756408065,0.0,-0.07340399920940399,0.005902113126867492,-0.1413514037655512,-0.2823346757115217,0.005902113126867492,0.0,0.0,0.0,-0.0003314605407823024,-0.0036808609139055287,0.0013957664561316987,0.009172746071810511,0.0033932556168679946,0.0,0.0009072674442758971,-0.0,0.004994845682591595,-1.663996908851394,-1.6638738502330495,0.0001230586183442739,0.0001230586183442739,0.07998184617009613,45.53820037841797,0.0,-0.0,0,0.0,0.0,0.0,45.505008697509766,1,-0.010824966430664062,-0.05,-0.011066920371613423,-1.6638738502330495,1.5707963267948966,-0.0,0,0.0,0.0,0.0,0.04001697400235571
17.305769627011614,41.599885887579546,-1.5,-1.5,-1.5004719790107721,0.29279201816086986,-3.5,-3.5036820816558194,-0.11438391729516934,0.0,-0.07257231324911118,0.00939040414675275,-0.13731390311303432,-0.282764457537307,0.00939040414675275,0.0,0.0,0.0,0.0010383538236986567,-0.003626790802329581,0.00028858487595205675,0.008100579642802686,0.0038902917115401538,-0.0,0.0025262141902264584,-0.0,0.006864189956526293,-1.6502088077606387,-1.6504335712133347,-0.000224763452695953,-0.000224763452695953,0.07750814950161129,45.52960968017578,0.0,-0.0,0,0.0,0.0,0.0,45.505008697509766,1,-0.007380294799804687,-0.05,-0.010981661465595724,-1.6504335712133347,1.5707963267948966,-0.0,0,0.0,0.0,0.0,0.03647568399901502
17.402247136007645,41.65898071556942,-1.5,-1.5,-1.5006008168418095,0.29335920877848304,-3.5,-3.5035595227632355,-0.11419614875578876,0.0,-0.07217918336391449,0.0067784016209909495,-0.1362264990402671,-0.2838005051528696,0.0067784016209909495,0.0,0.0,0.0,0.001321797051980811,-0.0035845523264463495,0.00096930768208885,0.007830950079118005,0.004174843493161762,-0.0,0.0028368306460417685,-0.0,0.0039415709749491806,-1.6468926821818497,-1.6470998521638978,-0.00020716998204806103,-0.00020716998204806103,0.07823029888636597,45.52397918701172,0.0,-0.0,0,0.0,0.0,0.0,45.505008697509766,1,-0.006531143188476562,-0.05,-0.010919989098701639,-1.6470998521638978,1.5707963267948966,-0.0,0,0.0,0.0,0.0,0.03987521199451294
17.51351623800292,41.836243656620645,-1.5,-1.5,-1.5008922022655622,0.2911666023911988,-3.5,-3.5029810000882557,-0.1145666178648307,0.0,-0.07126054167747498,0.006732540098610714,-0.1336144812972839,-0.28293227222195483,0.006732540098610714,0.0,0.0,0.0,0.0019628449842368223,-0.0034870284998752433,-0.0006165193018949737,0.006558200194162645,0.0045460454838634895,0.0,0.003877808084698134,-0.0,0.00285473201391258,-1.6369443054454815,-1.6371294252164643,-0.00018511977098256693,-0.00018511977098256693,0.07767194720053636,45.51838302612305,0.0,-0.0,0,0.0,0.0,0.0,45.505008697509766,1,-0.004012298583984375,-0.05,-0.010785229618993706,-1.6371294252164643,1.5707963267948966,-0.0,0,0.0,0.0,0.0,0.04049633300746791
17.602493166006752,41.95451515644967,-1.5,-1.5,-1.5010041733489878,0.29190567091736896,-3.5,-3.502539952829786,-0.11496837283455642,0.0,-0.07050466537475586,0.00812672170415883,-0.13218261344214727,-0.28452487443024865,0.00812672170415883,0.0,0.0,0.0,0.0022091813677732387,-0.003410987568359786,0.0007006628472642935,0.005587896225528777,0.0047538928358237895,-0.0,0.0044706563670851235,-0.0,0.0036560653370737066,-1.6303120542879033,-1.630505605196795,-0.00019355090889172644,-0.00019355090889172644,0.07951364558373217,45.51020812988281,0.0,-0.0,0,0.0,0.0,0.0,45.505008697509766,1,-0.0023586273193359373,-0.05,-0.010694944110278043,-1.630505605196795,1.5707963267948966,-0.0,0,0.0,0.0,0.0,0.03965823299949989
17.703953684002045,42.130638196177124,-1.5,-1.5,-1.5010830126315637,0.288167095876692,-3.5,-3.5020855416155343,-0.11516238333642234,0.0,-0.06947651505470276,0.009131390890635579,-0.12938475557626652,-0.2820677838857204,0.009131390890635579,0.0,0.0,0.0,0.0023826277894402285,-0.003276971050241467,-0.00204744660223061,0.004588191554175492,0.00502610403895831,-0.0,0.00540103550771403,-0.0,0.003730355382921548,-1.620538210476735,-1.6206684926674848,-0.00013028219074984193,-0.00013028219074984193,0.07642176353466722,45.504764556884766,0.0,-0.0,0,0.0,0.0,0.0,45.505008697509766,1,7.32421875e-05,-0.049999020344873205,-0.010549011051139503,-1.6206684926674848,1.5707963267948966,-0.0,0,0.0,0.0,0.0,0.03980915300780907
17.802912790008122,42.307765707792676,-1.5,-1.5,-1.5008957306360582,0.28811831690682493,-3.5,-3.5015984851213147,-0.11553905669192985,0.0,-0.06845647841691971,0.012218559769798909,-0.12696991646757677,-0.28326679733194843,0.012218559769798909,0.0,0.0,0.0,0.0019706073993280174,-0.003200550959412836,-0.0004612283084687828,0.00351666726689226,0.005165778377621342,-0.0,0.006342691895028135,-0.0,0.005875867874770774,-1.6107643666655667,-1.6108020423794813,-3.7675713914886444e-05,-3.7675713914886444e-05,0.11551953063780085,45.49667739868164,0.0,-0.0,0,0.0,0.0,0.0,45.505008697509766,1,0.0024993896484374997,-0.049953211680801496,-0.010431503226175491,-1.6108020423794813,1.5707963267948966,-0.0,0,0.0,0.0,0.0,0.04009341399068944
17.90505938901333,42.48535434236831,-1.5,-1.5,-1.500938417723962,0.2855706871907224,-3.5,-3.500951598532471,-0.11625486517126633,0.0,-0.06720404326915741,0.012165258630534529,-0.12481999187729835,-0.28193222711552846,0.012165258630534529,0.0,0.0,0.0,0.0020645189927163358,-0.003083132842306107,-0.0019021634887753198,0.002093516771435855,0.00533453971741601,-0.0,0.0072050087555310845,-0.0,0.004960249875003445,-1.6013395887047974,-1.600979348710078,0.00036023999471934687,0.00036023999471934687,0.07883242697407516,45.488739013671875,0.0,-0.0,0,0.0,0.0,0.0,45.505008697509766,1,0.0048809051513671875,-0.049812050333657105,-0.01026455016098235,-1.600979348710078,1.5707963267948966,-0.0,0,0.0,0.0,0.0,0.04034011899784673
18.009433627012186,42.544624636244656,-1.5,-1.5,-1.5009215913465865,0.28695062438525515,-3.5,-3.5007589576626326,-0.1164299332919444,0.0,-0.06666822731494904,0.01058476696335951,-0.12411074814051487,-0.2837130811179775,0.01058476696335951,0.0,0.0,0.0,0.0020275009624903806,-0.0030088790014498137,-0.00012585175684224497,0.001669706857791642,0.005402794072694805,-0.0,0.007506765877071029,-0.0,0.0030780010862884793,-1.5981979960512074,-1.5977135847697352,0.0004844112814721413,0.0004844112814721413,0.0782557953726651,45.48347854614258,0.0,-0.0,0,0.0,0.0,0.0,45.505008697509766,1,0.005665969848632812,-0.049671370876449045,-0.010151549825347753,-1.5977135847697352,1.5707963267948966,-0.0,0,0.0,0.0,0.0,0.040109994006343186
18.10437623001053,42.723621840913616,-1.5,-1.5,-1.5007830654211614,0.28367087737903507,-3.5,-3.4998904600825744,-0.1177502230523878,0.0,-0.06538450717926025,0.01215414426880432,-0.12258016824598458,-0.28161744273866407,0.01215414426880432,0.0,0.0,0.0,0.0017227439265549817,-0.0029047419967257885,-0.0018558047789934103,-0.00024098781833625796,0.005433907388069425,-0.0,0.008429402647217624,-0.0,0.0037247416215866955,-1.588598685165239,-1.587884341856834,0.0007143433084051409,0.0007143433084051409,0.11612677651946626,45.47831344604492,0.0,-0.0,0,0.0,0.0,0.0,45.505008697509766,1,0.008008575439453125,-0.04937979813672766,-0.009964280069956344,-1.587884341856834,1.5707963267948966,-0.0,0,0.0,0.0,0.0,0.039124570990679786
18.202635073001147,42.84146592899864,-1.5,-1.5,-1.5000065682194121,0.2800417066178366,-3.5,-3.4982929107244116,-0.12090827092370829,0.0,-0.06439071893692017,0.012433085682304711,-0.12388228032147731,-0.2787388527735993,0.012433085682304711,0.0,0.0,0.0,1.4450082706707335e-05,-0.0028853447727559367,-0.002746468097135463,-0.0037555964062944373,0.005332918117036764,-0.0,0.008963286937655942,-0.0,0.003469798744648769,-1.5789993742792698,-1.581440867899903,-0.002441493620633395,-0.002441493620633395,0.04187086284194284,45.470794677734375,0.0,-0.0,0,0.0,0.0,0.0,45.505008697509766,1,0.009513473510742188,-0.04913600322733908,-0.009829377657563365,-1.581440867899903,1.5707963267948966,-0.0,0,0.0,0.0,0.0,0.03906574100255966
18.304538362004678,43.018971989582155,-1.5,-1.5,-1.4996730383391228,0.2788619586760336,-3.5,-3.4973801923943255,-0.12263229909243725,0.0,-0.06292983889579773,0.013214105019605344,-0.12290496798607875,-0.278741890683248,0.013214105019605344,0.0,0.0,0.0,-0.0007193156539298418,-0.002904874397210336,-0.0018458016763433834,-0.005763576732483866,0.00505252626089279,-0.0,0.009829570142342921,-0.0,0.0033845348772624227,-1.5727161889720906,-1.571774328909556,0.0009418600625346052,0.0009418600625346052,0.07742254432399238,45.465843200683594,0.0,-0.0,0,0.0,0.0,0.0,45.505008697509766,1,0.011749649047851562,-0.04868828771739409,-0.009608583322350329,-1.571774328909556,1.5707963267948966,-0.0,0,0.0,0.0,0.0,0.040208375998190604
18.402617719009868,43.13642615138584,-1.5,-1.5,-1.4988798171606301,0.27528157905626743,-3.5,-3.4964530629360997,-0.124507380716746,0.0,-0.062094200402498245,0.014530305342643239,-0.12301712168715173,-0.2759507626234529,0.014530305342643239,0.0,0.0,0.0,-0.0024644022466137287,-0.0029756349264081073,-0.0026858218002628453,-0.007803261540580664,0.004788628259426687,-0.0,0.01048590801167121,-0.0,0.004044397330972029,-1.5662584707397116,-1.5653893312825025,0.0008691394572091227,0.0008691394572091227,0.07730321983535098,45.458560943603516,0.0,-0.0,0,0.0,0.0,0.0,45.505008697509766,1,0.013205337524414062,-0.04834734016980891,-0.00947568440431804,-1.5653893312825025,1.5707963267948966,-0.0,0,0.0,0.0,0.0,0.04020018599112518
18.523105557003873,43.31346006258602,-1.5,-1.5,-1.498823892208249,0.2756576729968285,-3.5,-3.4970032032291565,-0.12318675182891167,0.0,-0.06007252633571625,0.013915043110875396,-0.11903927089981937,-0.2774739275892849,0.013915043110875396,0.0,0.0,0.0,-0.0025874371418520337,-0.0031086934334723093,-0.0009840975265951303,-0.006592952895855753,0.004416897154374211,0.0,0.011081624859973499,-0.0,0.0028334182509018972,-1.5568336927789417,-1.5558002455738411,0.0010334472051005683,0.0010334472051005683,0.07695373130540406,45.45381546020508,0.0,-0.0,0,0.0,0.0,0.0,45.505008697509766,1,0.01535797119140625,-0.04774928428233636,-0.009211838478163639,-1.5558002455738411,1.5707963267948966,-0.0,0,0.0,0.0,0.0,0.04223499199724756
18.602512351004407,43.48941775285602,-1.5,-1.5,-1.5094263891179438,0.3755114034639281,-3.5,-3.492260777374338,-0.13425739383368152,0.0,-0.05877530947327614,0.01693256743136612,-0.12501185723323033,-0.37868971134896134,0.01693256743136612,0.0,0.0,0.0,0.020738056059476363,-0.0027618663191023183,0.07710181251099596,-0.017026289776456063,0.003977935921337947,-0.0,0.011915101806743189,-0.0,0.005017465624622932,-1.5474089148181724,-1.54628012459654,0.0011287902216325918,0.0011287902216325918,0.07682459242195,45.44690704345703,0.0,-0.0,0,0.0,0.0,0.0,45.505008697509766,1,0.017430496215820313,-0.04730447859233076,-0.009042824085527043,-1.54628012459654,1.5707963267948966,-0.0,0,0.0,0.0,0.0,0.04228593500738498
18.7039142690046,43.60716121729212,-1.5,-1.5,-1.4981181231143939,0.26852103222299134,-3.5,-3.4988173259545463,-0.1190300153865236,0.0,-0.0570962131023407,0.015363770537481558,-0.1106874528907934,-0.27206612630308313,0.015363770537481558,0.0,0.0,0.0,-0.004140129148333527,-0.0029466051037669873,-0.005119580563159051,-0.0026018828999981205,0.003773263320010292,0.0,0.012305768031931775,-0.0,0.0030580025055497824,-1.5409511965857934,-1.5399339573412723,0.0010172392445211287,0.0010172392445211287,0.07481458555535792,45.44242477416992,0.0,-0.0,0,0.0,0.0,0.0,45.505008697509766,1,0.018775177001953126,-0.04658336958789996,-0.008778407129840906,-1.5399339573412723,1.5707963267948966,-0.0,0,0.0,0.0,0.0,0.04035467600624543
18.80268170600175,43.7828589968262,-1.5,-1.5,-1.495702294674409,0.2671587824332854,-3.5,-3.5004555594623348,-0.11480399133154502,0.0,-0.05538501590490341,0.016271362520152967,-0.10393904828120383,-0.27157033287766646,0.016271362520152967,0.0,0.0,0.0,-0.009454951716300286,-0.0032653875770250126,1.6421927609530753e-05,0.001002230817136507,0.0037757223075527055,0.0,0.012915355457895095,-0.0,0.0033560070622578723,-1.5315264186250241,-1.5304663351841297,0.001060083440894477,0.001060083440894477,0.07628636946968298,45.435855865478516,0.0,-0.0,0,0.0,0.0,0.0,45.505008697509766,1,0.020745849609375,-0.046039041592618485,-0.008566231491834771,-1.5304663351841297,1.5707963267948966,-0.0,0,0.0,0.0,0.0,0.040093165007419884
18.903745998002705,43.900396680606164,-1.5,-1.5,-1.495084752967192,0.26288236729443265,-3.5,-3.5019408130558602,-0.11106444524305435,0.0,-0.05390098690986633,0.01568422062459526,-0.09868678318787874,-0.2677748473167355,0.01568422062459526,0.0,0.0,0.0,-0.010813543472177578,-0.003816945305633532,-0.0018374547545377596,0.004269788722892543,0.003928886900255148,0.0,0.013457264136896826,-0.0,0.0022269564876984346,-1.5254177662430441,-1.5241544732413803,0.0012632930016636124,0.0012632930016636124,0.07587993803096611,45.43157958984375,0.0,-0.0,0,0.0,0.0,0.0,45.505008697509766,1,0.022028732299804687,-0.04518329945126545,-0.00831764619691086,-1.5241544732413803,1.5707963267948966,-0.0,0,0.0,0.0,0.0,0.04005550700821914
19.008266959004686,44.0172342921589,-1.5,-1.5,-1.4948931793480673,0.2637100213278693,-3.5,-3.5024643529091555,-0.10940146878475888,0.0,-0.05246321111917496,0.016476531534335113,-0.09530140702729469,-0.2691269190170797,0.016476531534335113,0.0,0.0,0.0,-0.011235005434251912,-0.004225516139474723,0.00047841831291860096,0.005421576400142048,0.004126047284689555,-0.0,0.013841623866107057,-0.0,0.0026349076682280585,-1.5191345809358643,-1.5178841847086058,0.0012503962272587543,0.0012503962272587543,0.07634127840890409,45.4254035949707,0.0,-0.0,0,0.0,0.0,0.0,45.505008697509766,1,0.023266983032226563,-0.04456271225784365,-0.008098108783379444,-1.5178841847086058,1.5707963267948966,-0.0,0,0.0,0.0,0.0,0.04004311999597121
19.106656116011436,44.25251257977485,-1.5,-1.5,-1.4971702623120506,0.2668953448627702,-3.5,-3.503927126759766,-0.10533051185665665,0.0,-0.049944356083869934,0.01723819101073675,-0.08764810894337138,-0.27321319667258614,0.01723819101073675,0.0,0.0,0.0,-0.006225422913488599,-0.004666205077782384,0.0003449793059900517,0.00863967887148478,0.004576196576674489,-0.0,0.014559729665965653,-0.0,0.0026784613447710997,-1.5065682103215052,-1.5053424848997248,0.0012257254217802327,0.0012257254217802327,0.07587878942363681,45.41946029663086,0.0,-0.0,0,0.0,0.0,0.0,45.505008697509766,1,0.025664520263671876,-0.043565272919809245,-0.007777387317789807,-1.5053424848997248,1.5707963267948966,-0.0,0,0.0,0.0,0.0,0.04321610399347264
19.202673201012658,44.31105329403254,-1.5,-1.5,-1.4974568555136618,0.26587507502340435,-3.5,-3.5037434051712695,-0.1053080121179089,0.0,-0.049246110022068024,0.017893501945975745,-0.0868453329466259,-0.27246508231389255,0.017893501945975745,0.0,0.0,0.0,-0.005594917869944017,-0.004860861095188947,-0.0007155472292469619,0.008235491376792848,0.004862722311288825,0.0,0.015018184809379545,-0.0,0.0028753171365961997,-1.5034266176679152,-1.50223207235191,0.0011945453160051578,0.0011945453160051578,0.07605827042195679,45.41563034057617,0.0,-0.0,0,0.0,0.0,0.0,45.505008697509766,1,0.026239013671875,-0.042868143758009326,-0.007586671920301119,-1.50223207235191,1.5707963267948966,-0.0,0,0.0,0.0,0.0,0.04005231100018136
19.303818703003344,44.54705582786154,-1.5,-1.5,-1.4993720936344854,0.268532497022049,-3.5,-3.503773580931168,-0.10429411917313929,0.0,-0.046468351036310196,0.01827303880244541,-0.08221648600763241,-0.27609312682418324,0.01827303880244541,0.0,0.0,0.0,-0.001381394004132064,-0.004998575274063985,-0.0006709382208016094,0.0083018780485693,0.005334587236271135,-0.0,0.01555344878238759,-0.0,0.0027195900200578213,-1.4906857141283567,-1.4897661624426908,0.0009195516856657093,0.0009195516856657093,0.0755805539520133,45.410125732421875,0.0,-0.0,0,0.0,0.0,0.0,45.505008697509766,1,0.028464889526367186,-0.041753347062325745,-0.007257478863038986,-1.4897661624426908,1.5707963267948966,-0.0,0,0.0,0.0,0.0,0.03960251000535209
19.402535996006918,44.60704064149964,-1.5,-1.5,-1.4993938207712427,0.2689206536621312,-3.5,-3.503299029412555,-0.10488278159912048,0.0,-0.04590543732047081,0.01922777971413562,-0.081897847348825,-0.27678774980418713,0.01922777971413562,0.0,0.0,0.0,-0.0013335943032660059,-0.005047862441034565,0.00016383821930953367,0.007257864707621487,0.0056171076593028845,-0.0,0.016098597625203895,-0.0,0.003129182088931723,-1.4873695885495677,-1.4866072014962477,0.0007623870533199906,0.0007623870533199906,0.07354939221520246,45.40653991699219,0.0,-0.0,0,0.0,0.0,0.0,45.505008697509766,1,0.02900848388671875,-0.04098996497747047,-0.007092960187712597,-1.4866072014962477,1.5707963267948966,-0.0,0,0.0,0.0,0.0,0.039784007996786386
19.512989750000997,44.84300934293552,-1.5,-1.5,-1.4995423151505296,0.26390165088571493,-3.5,-3.5021954316190853,-0.10633160465515322,0.0,-0.04331742599606514,0.019083571352537715,-0.08038989172664698,-0.2729248189463969,0.019083571352537715,0.0,0.0,0.0,-0.0010069066688348728,-0.0050821450623201965,-0.0035273556261558934,0.004829949561987679,0.00595124268454682,-0.0,0.01670486422415213,-0.0,0.002378707128385586,-1.4748032179352084,-1.4742230415620874,0.0005801763731207998,0.0005801763731207998,0.0739969648475932,45.401424407958984,0.0,-0.0,0,0.0,0.0,0.0,45.505008697509766,1,0.031075286865234374,-0.039770871867772756,-0.006780400619939873,-1.4742230415620874,1.5707963267948966,-0.0,0,0.0,0.0,0.0,0.0399621350079542
19.602858402009588,44.90205657212943,-1.5,-1.5,-1.4995305009412672,0.26688272225208515,-3.5,-3.5020174617195363,-0.1063908193720647,0.0,-0.042570535093545914,0.019816779547414842,-0.07930854216611413,-0.2761440729453171,0.019816779547414842,0.0,0.0,0.0,-0.0010328979292122398,-0.005119706561092082,-9.52877203976952e-05,0.004438415782979899,0.006122690871810891,-0.0,0.017188421546282473,-0.0,0.002628358001132368,-1.4685200326280285,-1.4711332641368666,-0.0026132315088380764,-0.0026132315088380764,0.07886628106385696,45.398109436035156,0.0,-0.0,0,0.0,0.0,0.0,45.505008697509766,1,0.03157539367675781,-0.038894737096438564,-0.006603822430061033,-1.4711332641368666,1.5707963267948966,-0.0,0,0.0,0.0,0.0,0.03719537799770478
19.703266323005664,45.0781095117726,-1.5,-1.5,-1.4997396622916113,0.26475515485244366,-3.5,-3.5018105731375937,-0.10616998437955971,0.0,-0.04024606570601463,0.019465683715776193,-0.07677895452888518,-0.2747223138835809,0.019465683715776193,0.0,0.0,0.0,-0.000572742958455219,-0.005148434917691179,-0.0015554233266571321,0.003983260902706132,0.006351290139633482,-0.0,0.01759185018347132,-0.0,0.001873833532304873,-1.4625859131712484,-1.4619428364272216,0.0006430767440268603,0.0006430767440268603,0.07390527672329938,45.39494323730469,0.0,-0.0,0,0.0,0.0,0.0,45.505008697509766,1,0.033019638061523436,-0.03763840436634777,-0.0063075490954047604,-1.4619428364272216,1.5707963267948966,-0.0,0,0.0,0.0,0.0,0.03976264099765103
19.804958126012934,45.19540856518091,-1.5,-1.5,-1.499212768450806,0.26507860260360455,-3.5,-3.501266932913472,-0.10690108859168823,0.0,-0.03861411660909653,0.01947782840989232,-0.07578224099152445,-0.2755931063192078,0.01947782840989232,0.0,0.0,0.0,-0.0017319094082266064,-0.005210560287977124,0.000779578424749191,0.0027872524096384413,0.006454963334735319,0.0,0.01783900180330944,-0.0,0.0016388266065828808,-1.4564772607892678,-1.4558113814211933,0.0006658793680744957,0.0006658793680744957,0.07286328242729506,45.390445709228516,0.0,-0.0,0,0.0,0.0,0.0,45.505008697509766,1,0.033928298950195314,-0.03673177298303163,-0.00607897290407781,-1.4558113814211933,1.5707963267948966,-0.0,0,0.0,0.0,0.0,0.04070826900715474
19.904647885006852,45.37261473184559,-1.5,-1.5,-1.4995846141925244,0.26348051118939425,-3.5,-3.5014933696294066,-0.10580642779953836,0.0,-0.036053616553545,0.019535753053057592,-0.07235546993817363,-0.27455721791704824,0.019535753053057592,0.0,0.0,0.0,-0.0009138487764462689,-0.005270273096017825,-0.0005524547127520179,0.00328541318469453,0.006634034961550723,-0.0,0.01813141291903772,-0.0,0.0014043401340198733,-1.4475760816040968,-1.4466118855543784,0.0009641960497184243,0.0009641960497184243,0.07450463163773888,45.38760757446289,0.0,-0.0,0,0.0,0.0,0.0,45.505008697509766,1,0.0352203369140625,-0.03533903830447404,-0.005715893631403924,-1.4466118855543784,1.5707963267948966,-0.0,0,0.0,0.0,0.0,0.03953547299897764
20.014553946006345,45.549440313221474,-1.5,-1.5,-1.4994720278738354,0.2642385162024288,-3.5,-3.501016368781615,-0.10629962092478708,0.0,-0.03367525339126587,0.019474228665843904,-0.07023024011170045,-0.276024122546323,0.019474228665843904,0.0,0.0,0.0,-0.0011615386775621684,-0.0053202533802478675,0.001625550340261117,0.0022360113195528442,0.006716631625797137,0.0,0.01817786784526036,-0.0,0.001296360820583547,-1.4385003694937262,-1.4374688266170748,0.0010315428766514145,0.0010315428766514145,0.07463496409887531,45.38364791870117,0.0,-0.0,0,0.0,0.0,0.0,45.505008697509766,1,0.03640823364257812,-0.034374557742267865,-0.00541248288280886,-1.4374688266170748,1.5707963267948966,-0.0,0,0.0,0.0,0.0,0.04307553599937819
20.103404944005888,45.66907109693145,-1.5,-1.5,-1.499730757349477,0.26202493069914,-3.5,-3.5009765676880686,-0.10598269199238573,0.0,-0.032191142439842224,0.020521079516951153,-0.06852421583588864,-0.2742149287582983,0.020521079516951153,0.0,0.0,0.0,-0.000592333831150782,-0.005361993727431403,-0.00040449978907723867,0.0021484489137510113,0.0068377453271194245,-0.0,0.018818602452529753,-0.0,0.001702477064421399,-1.4292501244581561,-1.431314987969694,-0.0020648635115376734,-0.0020648635115376734,0.04150391180302599,45.38109588623047,0.0,-0.0,0,0.0,0.0,0.0,45.505008697509766,1,0.03717384338378906,-0.032900450057110356,-0.005100198345638007,-1.431314987969694,1.5707963267948966,-0.0,0,0.0,0.0,0.0,0.03892100599477999
20.20234956900822,45.846308179710356,-1.5,-1.5,-1.4995508288940158,0.26228682988478347,-3.5,-3.5000667845526343,-0.10748402558631504,0.0,-0.02952035889029503,0.019410858191388266,-0.0674743039290071,-0.2753078553120941,0.019410858191388266,0.0,0.0,0.0,-0.0009881764331652221,-0.0054023220053930465,0.0014700441880805258,0.00014692601579548994,0.006849979498969759,0.0,0.01863408769921597,-0.0,0.0007767704921722954,-1.4231414720761761,-1.422223069875461,0.0009184022007149295,0.0009184022007149295,0.06516435734132159,45.37757873535156,0.0,-0.0,0,0.0,0.0,0.0,45.505008697509766,1,0.03822898864746094,-0.03189580128992718,-0.004796733415802164,-1.422223069875461,1.5707963267948966,-0.0,0,0.0,0.0,0.0,0.04027810999832582
20.303538887004834,45.96475749317463,-1.5,-1.5,-1.4995128368598003,0.25852805749579333,-3.5,-3.499462457418875,-0.1085178893360097,0.0,-0.027927912771701813,0.020468417987986806,-0.06740777838905082,-0.27215635254600123,0.020468417987986806,0.0,0.0,0.0,-0.0010717589084393354,-0.005453166673159793,-0.0013736915918389052,-0.0011825936784748414,0.0068280147393002,-0.0,0.019190811839117375,-0.0,0.001277606148869431,-1.4172073526193953,-1.4161727091294676,0.0010346434899277668,0.0010346434899277668,0.07359890828809885,45.37539291381836,0.0,-0.0,0,0.0,0.0,0.0,45.505008697509766,1,0.038884735107421874,-0.0303563500309891,-0.004471611449605628,-1.4161727091294676,1.5707963267948966,-0.0,0,0.0,0.0,0.0,0.04004235200409312
20.402480016011395,46.08250067215821,-1.5,-1.5,-1.4988781705594687,0.25913501905368896,-3.5,-3.498223517059465,-0.11100544975129902,0.0,-0.026081297546625137,0.02149657328510994,-0.06812843641921543,-0.27355380480906644,0.02149657328510994,0.0,0.0,0.0,-0.002468024769168853,-0.005542887693002663,0.001588125476452151,-0.0039082624691772596,0.00668593622415374,0.0,0.01923790111766795,-0.0,0.00225867216744199,-1.4112732331626152,-1.4101593058363064,0.0011139273263087723,0.0011139273263087723,0.0730890152768257,45.37245559692383,0.0,-0.0,0,0.0,0.0,0.0,45.505008697509766,1,0.03948211669921875,-0.029302749558305554,-0.0041974961580917465,-1.4101593058363064,1.5707963267948966,-0.0,0,0.0,0.0,0.0,0.03996323399769608
20.52145579100761,46.260046685920074,-1.5,-1.5,-1.4987255857066857,0.2563869352970151,-3.5,-3.4973261445905197,-0.11281400688926144,0.0,-0.023813743144273758,0.02228439267633588,-0.06790508645729249,-0.2717538591715558,0.02228439267633588,0.0,0.0,0.0,-0.0028037114452915016,-0.005691467806542883,0.0004792218176763042,-0.005882481900856629,0.0063742874774971965,0.0,0.01956946438919695,-0.0,0.0027149282871389287,-1.4023720539774438,-1.4011402400080861,0.0012318139693574537,0.0012318139693574537,0.07325916730877396,45.37064743041992,0.0,-0.0,0,0.0,0.0,0.0,45.505008697509766,1,0.040308380126953126,-0.02769077491346804,-0.0038155743757639304,-1.4011402400080861,1.5707963267948966,-0.0,0,0.0,0.0,0.0,0.042794960987521335
20.603861745010363,46.3777453355496,-1.5,-1.5,-1.4981425941548996,0.25518165546153204,-3.5,-3.4963083998946707,-0.1149756576854349,0.0,-0.022046733647584915,0.02211791351406487,-0.06861939484397808,-0.27134564266914735,0.02211791351406487,0.0,0.0,0.0,-0.004086292859220908,-0.005835871250044728,0.0015254084442885595,-0.0081215202317245,0.006087285167987123,0.0,0.019633185624081482,-0.0,0.002484727889983388,-1.3962634015954636,-1.3951661436029512,0.0010972579925123682,0.0010972579925123682,0.07343569837956698,45.36818313598633,0.0,-0.0,0,0.0,0.0,0.0,45.505008697509766,1,0.04080848693847656,-0.026570977327011885,-0.0035622672189137847,-1.3951661436029512,1.5707963267948966,-0.0,0,0.0,0.0,0.0,0.03821871800755616
20.709975928999484,46.55514357373216,-1.5,-1.5,-1.4980505149252699,0.2509971658031965,-3.5,-3.495824377110521,-0.11607852348790162,0.0,-0.019947005435824394,0.021237303217576494,-0.06803746661147057,-0.2680386240702292,0.021237303217576494,0.0,0.0,0.0,-0.004288867164406307,-0.006067514138869989,-0.0011478037108728785,-0.009186370356854124,0.005596416470820463,-0.0,0.019950678119380623,-0.0,0.0012866250981958718,-1.3873622224102926,-1.3862057111979706,0.0011565112123221866,0.0011565112123221866,0.07297317057529276,45.366676330566406,0.0,-0.0,0,0.0,0.0,0.0,45.505008697509766,1,0.04149971008300781,-0.024942191911059026,-0.003253393408805472,-1.3862057111979706,1.5707963267948966,-0.0,0,0.0,0.0,0.0,0.043083085998659953
20.802590664010495,46.67257831783331,-1.5,-1.5,-1.4975177304714207,0.25050283792454914,-3.5,-3.4951088478147563,-0.11767458973002672,0.0,-0.01816142536699772,0.020181054866515127,-0.0681055554996621,-0.26825475613018585,0.020181054866515127,0.0,0.0,0.0,-0.005460992962874523,-0.006253376917263247,0.00048352395106926975,-0.010760534807536182,0.005228613388813365,0.0,0.019917099948263798,-0.0,0.00026395491825132914,-1.381428102953512,-1.3802680590629899,0.0011600438905219335,0.0011600438905219335,0.07290112087930777,45.36534881591797,0.0,-0.0,0,0.0,0.0,0.0,45.505008697509766,1,0.04189796447753906,-0.02384001635312188,-0.003024206910975232,-1.3802680590629899,1.5707963267948966,-0.0,0,0.0,0.0,0.0,0.04006995500822086
20.903340554010356,46.84986596595024,-1.5,-1.5,-1.4977249985364398,0.24935633821660425,-3.5,-3.4951816699979625,-0.11767566339233501,0.0,-0.01579853519797325,0.020756754251248254,-0.0659424255845709,-0.26772699092852587,0.020756754251248254,0.0,0.0,0.0,-0.005005003219832416,-0.006527281042029079,0.00013451668938276756,-0.01060032600448242,0.004660755206027543,-0.0,0.020053499961284745,-0.0,0.0007032542899635102,-1.3723523908431412,-1.371363647658533,0.0009887431846085093,0.0009887431846085093,0.07078986106364038,45.36359405517578,0.0,-0.0,0,0.0,0.0,0.0,45.505008697509766,1,0.04242439270019531,-0.022150237498698284,-0.002650190463995705,-1.371363647658533,1.5707963267948966,-0.0,0,0.0,0.0,0.0,0.04004877500119619
21.020042559001013,46.96760648225037,-1.5,-1.5,-1.497684180329025,0.25005962227505707,-3.5,-3.494783504695771,-0.11868429946127909,0.0,-0.01405831053853035,0.020147178208597252,-0.0652058790630343,-0.2690055221860245,0.020147178208597252,0.0,0.0,0.0,-0.005094803276144866,-0.0067243203385054075,0.0018375673103966886,-0.011476289669303964,0.004232243622592776,0.0,0.02001111480887957,-0.0,0.00013606339971768304,-1.3634512116579702,-1.3654641235743714,-0.0020129119164011833,-0.0020129119164011833,0.07609374537054713,45.3621826171875,0.0,-0.0,0,0.0,0.0,0.0,45.505008697509766,1,0.042710494995117185,-0.021006716675403304,-0.002410230843444943,-1.3654641235743714,1.5707963267948966,-0.0,0,0.0,0.0,0.0,0.04152576898923144
21.10621302900836,47.14517728378596,-1.5,-1.5,-1.498559346355989,0.24763201361779552,-3.5,-3.49542229225427,-0.11750681183985151,0.0,-0.01183353178203106,0.022239574481082196,-0.06218827308601014,-0.2669495901621693,0.022239574481082196,0.0,0.0,0.0,-0.0031694380168242556,-0.006918546505613461,-0.0014364565622940499,-0.010070957040605677,0.0036698414205069345,-0.0,0.02016266805933003,-0.0,0.002076906421752169,-1.3576916251263889,-1.356614924112514,0.0010767010138748034,0.0010767010138748034,0.07165713144306748,45.3613395690918,0.0,-0.0,0,0.0,0.0,0.0,45.505008697509766,1,0.043100738525390626,-0.019289336120632463,-0.00204048742123917,-1.356614924112514,1.5707963267948966,-0.0,0,0.0,0.0,0.0,0.0407222339999862
21.202410953002982,47.26292038709962,-1.5,-1.5,-1.4985895064656494,0.24987892825453942,-3.5,-3.4954393360857146,-0.11756553092733805,0.0,-0.0102920550853014,0.020541392431521806,-0.06018817503990517,-0.2695153361744557,0.020541392431521806,0.0,0.0,0.0,-0.0031030857755713907,-0.007036699228729495,0.0015053574995067519,-0.01003346061142798,0.0032996063270567147,0.0,0.02019109030968382,-0.0,0.0003503021218379873,-1.351757505669608,-1.3507490476311272,0.0010084580384805975,0.0010084580384805975,0.07170084572674174,45.36030197143555,0.0,-0.0,0,0.0,0.0,0.0,45.505008697509766,1,0.043315887451171875,-0.01813436598145084,-0.001821759372216067,-1.3507490476311272,1.5707963267948966,-0.0,0,0.0,0.0,0.0,0.039987734009628184
21.304690281001967,47.44054308385864,-1.5,-1.5,-1.4992322813762162,0.2488691716541094,-3.5,-3.4961241554060085,-0.1161991599809062,0.0,-0.007938246242702007,0.02069696247410712,-0.05671279756327913,-0.26874107980101836,0.02069696247410712,0.0,0.0,0.0,-0.0016889809723243056,-0.007151091613512606,6.286594264269395e-05,-0.008526858106781266,0.002813410404055898,-0.0,0.020192399004628877,-0.0,0.0005045634694782438,-1.342856326484437,-1.3419503003820246,0.0009060261024123051,0.0009060261024123051,0.07126533537221216,45.35975646972656,0.0,-0.0,0,0.0,0.0,0.0,45.505008697509766,1,0.04357566833496094,-0.016387741331828288,-0.0014721749047865264,-1.3419503003820246,1.5707963267948966,-0.0,0,0.0,0.0,0.0,0.0399765159963863
21.402476868010126,47.558382311857585,-1.5,-1.5,-1.499133071171213,0.24911549182063825,-3.5,-3.4960567326305374,-0.11638446941437898,0.0,-0.0062524559907615185,0.0197938372959807,-0.055266947425394196,-0.2693500278600017,0.0197938372959807,0.0,0.0,0.0,-0.0019072434233314618,-0.007224185853081674,0.0012488466540538819,-0.00867518821281772,0.002493253279315681,0.0,0.020087701920536733,-0.0,-0.00029386462455603283,-1.3369222070276563,-1.3361162593306821,0.0008059476969739521,0.0008059476969739521,0.07103151481671668,45.35921096801758,0.0,-0.0,0,0.0,0.0,0.0,45.505008697509766,1,0.04369354248046875,-0.015230107775534836,-0.0012363874948008709,-1.3361162593306821,1.5707963267948966,-0.0,0,0.0,0.0,0.0,0.04016570499516092
21.511728173005395,47.737186143686294,-1.5,-1.5,-1.4993619383134806,0.2475262428661871,-3.5,-3.4963019935540443,-0.11590397098867034,0.0,-0.0038921739906072617,0.02017603774234047,-0.05280751159066427,-0.2681684883016553,0.02017603774234047,0.0,0.0,0.0,-0.001403735710342602,-0.007302537381682657,0.00016112554705502547,-0.008135614181102646,0.0020458689033001362,0.0,0.020012599793885557,-0.0,0.00016343794845491587,-1.3278464949172861,-1.3273018701459791,0.0005446247713072339,0.0005446247713072339,0.0686860653042694,45.35902404785156,0.0,-0.0,0,0.0,0.0,0.0,45.505008697509766,1,0.04379539489746093,-0.013474462198942206,-0.0008587736993167261,-1.3273018701459791,1.5707963267948966,-0.0,0,0.0,0.0,0.0,0.03995805000886321
21.602871129012783,47.855872654894384,-1.5,-1.5,-1.4995875417197453,0.24819875748270442,-3.5,-3.4965789673329732,-0.11533011659552542,0.0,-0.0022465402726083994,0.018993041862746158,-0.05052096577903233,-0.268981952975752,0.018993041862746158,0.0,0.0,0.0,-0.0009074082165603681,-0.007341920395397922,0.0009713013965380798,-0.007526271867458868,0.0017631941150869032,0.0,0.019876009329703136,-0.0,-0.0008829674669569783,-1.3220869083857045,-1.3214711936496017,0.0006157147361030013,0.0006157147361030013,0.06985497779147486,45.358943939208984,0.0,-0.0,0,0.0,0.0,0.0,45.505008697509766,1,0.043822860717773436,-0.012309712612480163,-0.0006330061617297753,-1.3214711936496017,1.5707963267948966,-0.0,0,0.0,0.0,0.0,0.040721689991187304
21.703649079005118,48.09284783286336,-1.5,-1.5,-1.4993304867571562,0.2441584373915731,-3.5,-3.496428908932469,-0.11550156363720926,0.0,0.0008072910131886601,0.018043405699077177,-0.04860303178779593,-0.26569098413978887,0.018043405699077177,0.0,0.0,0.0,-0.0014729291342563844,-0.007396652402004401,-0.0011680968377406485,-0.00785640034856785,0.0013586219760623624,-0.0,0.01928792669678951,-0.0,-0.001244520997712333,-1.3102186694721432,-1.3098623200461197,0.00035634942602325026,0.00035634942602325026,0.06971510083233459,45.359195709228516,0.0,-0.0,0,0.0,0.0,0.0,45.505008697509766,1,0.043743896484374996,-0.010564842014359123,-0.00022521896217802756,-1.3098623200461197,1.5707963267948966,-0.0,0,0.0,0.0,0.0,0.040433383008348756
21.80286013901059,48.21008984292044,-1.5,-1.5,-1.4991872460946618,0.24328042466062574,-3.5,-3.4962872402126743,-0.11583015572977459,0.0,0.002104017185047269,0.016965293345710713,-0.047630445305033325,-0.2652043187421398,0.016965293345710713,0.0,0.0,0.0,-0.0017880585917440241,-0.007457156792254254,-0.0010317481681472083,-0.00816807153211645,0.001061821032318563,-0.0,0.019292145300128474,-0.0,-0.0023268519544177614,-1.304459082940562,-1.3041408603319549,0.0003182226086071438,0.0003182226086071438,0.0694464350236421,45.3594970703125,0.0,-0.0,0,0.0,0.0,0.0,45.505008697509766,1,0.04365348815917969,-0.00939598993205556,9.445813726049611e-08,-1.3041408603319549,1.5707963267948966,-0.0,0,0.0,0.0,0.0,0.041649891005363315
21.90416737200576,48.38736720212277,-1.5,-1.5,-1.498863718470061,0.2403058812430859,-3.5,-3.495850618901743,-0.11681222496589967,0.0,0.004551180638372898,0.014943983400852831,-0.04709414129265195,-0.2630097988999798,0.014943983400852831,0.0,0.0,0.0,-0.0024998193658656745,-0.0075672912465863116,-0.0021923419562088226,-0.009128638416165203,0.0006050838376276955,-0.0,0.01895131755060508,-0.0,-0.004007334149752251,-1.2959069696057897,-1.2955128266542464,0.0003941429515430528,0.0003941429515430528,0.06922250123704349,45.36015701293945,0.0,-0.0,0,0.0,0.0,0.0,45.505008697509766,1,0.04345550537109375,-0.007649542054854347,0.0003307465731419634,-1.2955128266542464,1.5707963267948966,-0.0,0,0.0,0.0,0.0,0.03983751300256699
22.009710072001326,48.44656902316207,-1.5,-1.5,-1.4988870942166652,0.24231272697856834,-3.5,-3.4957648080313812,-0.11720395148220647,0.0,0.005245762877166271,0.01893218338257417,-0.04616479990930969,-0.26518113648630254,0.01893218338257417,0.0,0.0,0.0,-0.0024483927233365232,-0.007657482286660366,0.00017428748967517033,-0.00931742233096129,0.00026884409448318046,-0.0,0.019299165373201716,-0.0,-0.0003669819906275475,-1.293114442802599,-1.2926430543936596,0.00047138840893934386,0.00047138840893934386,0.07041125869313666,45.36073303222656,0.0,-0.0,0,0.0,0.0,0.0,45.505008697509766,1,0.04337310791015625,-0.006494685855695365,0.00053261644470824,-1.2926430543936596,1.5707963267948966,-0.0,0,0.0,0.0,0.0,0.0402365310001187
22.104889838010422,48.62398337927539,-1.5,-1.5,-1.498998463305851,0.2416855828682418,-3.5,-3.4956820156903428,-0.11750982711519103,0.0,0.007453862577676773,0.020822977581254294,-0.044356916646090344,-0.2650527200023717,0.020822977581254294,0.0,0.0,0.0,-0.0022033807271276463,-0.0077725446082790575,0.0003494620575229363,-0.009499565481245932,-0.0002440605629086895,0.0,0.01906665723251939,-0.0,0.0017563203487349045,-1.2845623294678266,-1.2840565856867137,0.0005057437811126775,0.0005057437811126775,0.06937091649808629,45.36143112182617,0.0,-0.0,0,0.0,0.0,0.0,45.505008697509766,1,0.043073272705078124,-0.004732851574150327,0.0008912035009479665,-1.2840565856867137,1.5707963267948966,-0.0,0,0.0,0.0,0.0,0.0378986809955677
22.202706692012725,48.74333406363241,-1.5,-1.5,-1.4991030236987837,0.24062737182136276,-3.5,-3.4957362919393398,-0.11747447607661705,0.0,0.008627934381365776,0.020715449523330945,-0.04309930288058329,-0.2642805983993902,0.020715449523330945,0.0,0.0,0.0,-0.001973347862675912,-0.007843811170268783,-0.0002599492050351451,-0.00938015773345251,-0.0005828207000484185,-0.0,0.01899952148673723,-0.0,0.001715928036593717,-1.2788027429362454,-1.278291042989588,0.0005116999466574512,0.0005116999466574512,0.06942191931815331,45.362648010253906,0.0,-0.0,0,0.0,0.0,0.0,45.505008697509766,1,0.04284095764160156,-0.003631449281291338,0.0010842951656175987,-1.278291042989588,1.5707963267948966,-0.0,0,0.0,0.0,0.0,0.04022339399671182
22.30385066701274,48.92059792702829,-1.5,-1.5,-1.4993204056065688,0.23870906968493916,-3.5,-3.495913326714792,-0.11720846072302415,0.0,0.011050005443394184,0.01742236450278615,-0.04115656790170019,-0.26272795841604407,0.01742236450278615,0.0,0.0,0.0,-0.001495107665548723,-0.007926590178323709,-0.0016905859659264455,-0.008990681227457742,-0.0010748906291255175,-0.0,0.018505079082924224,-0.0,-0.0010827145801380758,-1.270250629601473,-1.2697548684473778,0.00049576115409522,0.00049576115409522,0.06944561608679482,45.363590240478516,0.0,-0.0,0,0.0,0.0,0.0,45.505008697509766,1,0.042425537109375,-0.0019281853952109185,0.0013944522007704773,-1.2697548684473778,1.5707963267948966,-0.0,0,0.0,0.0,0.0,0.04018889799772296
22.402303804003168,49.03869851577596,-1.5,-1.5,-1.4994135377568432,0.23973489876002196,-3.5,-3.495988477439895,-0.11711430476943652,0.0,0.012185449711978436,0.01965846439158308,-0.03926579888829919,-0.2639067621391503,0.01965846439158308,0.0,0.0,0.0,-0.0012902169349450433,-0.007973412198977257,-0.00023189224986650987,-0.008825349632231383,-0.001395162896186342,-0.0,0.01844119488211151,-0.0,0.0012172695094715693,-1.2644910430698915,-1.2640812216908255,0.0004098213790659777,0.0004098213790659777,0.06920309906122936,45.36516571044922,0.0,-0.0,0,0.0,0.0,0.0,45.505008697509766,1,0.04212112426757812,-0.0008068486328977553,0.0016064988808172495,-1.2640812216908255,1.5707963267948966,-0.0,0,0.0,0.0,0.0,0.040161820987123065
22.50772245400003,49.274996844416066,-1.5,-1.5,-1.4999035429005505,0.23952454347822644,-3.5,-3.4967639335578315,-0.11538308949317229,0.0,0.01527490932494402,0.012048879720893186,-0.03469974327077201,-0.26359285287424755,0.012048879720893186,0.0,0.0,0.0,-0.00021220561878889657,-0.008003710387308871,-0.00040482291190321374,-0.007119346172770592,-0.001824190839240893,0.0,0.01737170326086942,-0.0,-0.005322823539976233,-1.253320935857128,-1.2527704797972004,0.0005504560599276509,0.0005504560599276509,0.06930010721600369,45.36695098876953,0.0,-0.0,0,0.0,0.0,0.0,45.505008697509766,1,0.04141731262207031,0.0008662269673438971,0.0019442085036455129,-1.2527704797972004,1.5707963267948966,-0.0,0,0.0,0.0,0.0,0.040103103005094454
22.60238391200255,49.33414792348283,-1.5,-1.5,-1.5001015088747804,0.24158806886322629,-3.5,-3.4970293462537603,-0.1149413215931478,0.0,0.015879496932029724,0.016624952586963955,-0.03288596459527557,-0.26550859827749584,0.016624952586963955,0.0,0.0,0.0,0.00022331952451697392,-0.00800348036232066,0.001482844763856457,-0.006535438241727399,-0.0020718486168784813,0.0,0.01766891891765606,-0.0,-0.001043966330692107,-1.2503538761287374,-1.249949300448568,0.0004045756801693834,0.0004045756801693834,0.06731918335882368,45.3682746887207,0.0,-0.0,0,0.0,0.0,0.0,45.505008697509766,1,0.04122161865234375,0.0019662618334411962,0.002139814642338217,-1.249949300448568,1.5707963267948966,-0.0,0,0.0,0.0,0.0,0.04005125399271492
22.70430769700033,49.51154012782888,-1.5,-1.5,-1.5006243303015072,0.24040001221640797,-3.5,-3.4976562183832742,-0.11352373532144784,0.0,0.017756378278136253,0.016049792136888966,-0.029685802720095508,-0.2641941662335617,0.016049792136888966,0.0,0.0,0.0,0.0013735266633158718,-0.00792682465727672,-0.00013250029785781537,-0.005156319556796696,-0.0023584326713098113,0.0,0.017328858802287853,-0.0,-0.0012790666653988878,-1.241976295719165,-1.2415059663715828,0.0004703293475820658,0.0004703293475820658,0.06867596480820624,45.36965560913086,0.0,-0.0,0,0.0,0.0,0.0,45.505008697509766,1,0.040605926513671876,0.003596649304931643,0.0024352337966791547,-1.2415059663715828,1.5707963267948966,-0.0,0,0.0,0.0,0.0,0.04049342199868988
22.802441613006522,49.62976209152337,-1.5,-1.5,-1.5008986034823102,0.24197742365921815,-3.5,-3.498046616023505,-0.1126081294894606,0.0,0.019187025725841522,0.014960577484225529,-0.026819363170641278,-0.26554545024720183,0.014960577484225529,0.0,0.0,0.0,0.0019769276610824174,-0.007863151053477064,0.0013113846146460151,-0.004297444748288815,-0.002523087548510195,0.0,0.016961566905086177,-0.0,-0.002000989420860648,-1.2362167091875838,-1.2358934902387941,0.00032321894878961643,0.00032321894878961643,0.06670726871298063,45.37195587158203,0.0,-0.0,0,0.0,0.0,0.0,45.505008697509766,1,0.040157318115234375,0.004670014106233933,0.0026289716795168485,-1.2358934902387941,1.5707963267948966,-0.0,0,0.0,0.0,0.0,0.040197975002229214
