t,radius,set_speed_r,set_speed_r_filtered,meas_speed_r,acc_cmd_r,set_speed_theta,meas_speed_theta,acc_cmd_theta,set_speed_z,meas_speed_z,acc_cmd_z,acc_x,acc_y,acc_z,pub_vel_x,pub_vel_y,pub_vel_z,pid_r_P,pid_r_I,pid_r_D,pid_vtheta_P,pid_vtheta_I,pid_vtheta_D,pid_z_P,pid_z_I,pid_z_D,yaw_enu,yaw_target,error_yaw,total_yaw_err,yaw_rate,drone_z,target_z,r_lock_position,r_lock_active,r_pid_P,r_pid_I,r_pid_D,z_lock_position,z_lock_active,z_pid_P,z_pid_I,z_pid_D,theta_actual,theta_target,theta_lock_position,theta_lock_active,theta_pid_P,theta_pid_I,theta_pid_D,dt
17.101083453,10.476843014971761,0.0,0.0,-0.01717459572729575,0.08391869602692686,-0.0,-0.051410773008465464,0.1160850103865806,0.0,0.013792946003377438,-0.05362333716417139,0.1046389147489558,-0.09782011398211021,-0.05362333716417139,0.0,0.0,0.0,0.0384049234501938,0.0007061724949686631,0.04455532298096687,0.11404597373995543,0.002123313870325712,-0.0,-0.008105799135165619,-0.0,-0.04551753802900577,-1.4859733251479719,-1.6965922147761374,-0.21061888962816555,-0.21061888962816555,-0.2696433174589165,10.259275436401367,0.0,10.476952207195684,1,-2.1838444784449963e-05,-1.0919222392224982e-08,0.0003040370231628188,10.260170936584473,1,2.2029876708984373e-05,7.343292236328125e-09,0.00026124355810018627,-1.6965922147761374,1.5707963267948966,-1.6965861142394205,1,-3.6603220301412165e-06,-1.2201073433804057e-09,0.0004319675063790295,0.03995757400002731
17.2015210080001,10.477766621096398,0.0,0.0,-0.015181505595617078,0.054792254587979754,-0.0,-0.05814495949208395,0.1393925454460263,0.0,0.006206625606864691,-0.005245332280021397,0.13142725455535048,-0.07182861302294233,-0.005245332280021397,0.0,0.0,0.0,0.0368622685465821,0.0029858616367240626,0.014621456756443198,0.13068611916479578,0.00879067400880528,-0.0,-0.002121999311086192,-0.0,-0.0031233329689352054,-1.4821336007935844,-1.6964440032595365,-0.21431040246595234,-0.21431040246595234,-0.3469346428960498,10.253082275390625,0.0,10.476952207195684,1,0.00016288278014293668,5.261574060379314e-06,0.0014059266622623763,10.260170936584473,1,0.002126598358154297,3.683060857582839e-05,0.0005065311216575787,-1.6964440032595365,1.5707963267948966,-1.6965861142394205,1,8.526658793042152e-05,2.5352250245167426e-06,0.0011700201335046404,0.03945703699992009
17.301087990000042,10.47832285145259,0.0,0.0,-0.022501882155961616,0.061109531575508046,-0.0,-0.0588071324083609,0.1462128389764801,0.0,0.016952909529209137,-0.025386924669404877,0.13741280702204642,-0.07893218353284004,-0.025386924669404877,0.0,0.0,0.0,0.054528175408628476,0.0048877841129989896,0.001363530799080428,0.13284120108994218,0.013497924428968657,0.0,-0.004983917043153255,-0.0,-0.02040300762625162,-1.4835298641951802,-1.69630859191299,-0.2127787277178097,-0.2127787277178097,-0.36862754106654233,10.21847152709961,0.0,10.476952207195684,1,0.00027412885138140554,1.6324268753422804e-05,0.0019931990005528605,10.260170936584473,1,0.007217216491699218,0.0001905269652548255,0.0012386376669996687,-1.69630859191299,1.5707963267948966,-1.6965861142394205,1,0.00016651339585824765,6.406915279554941e-06,0.0014023114122931996,0.040006610999853365
17.401851045000058,10.475996241754823,0.0,0.0,-0.01472444679742664,0.1930773926116153,-0.0,-0.06267203530876178,0.1635643814244668,0.0,0.006171911023557186,0.0016930405086503873,0.13815053591669263,-0.2120061693309865,0.0016930405086503873,0.0,0.0,0.0,0.0356113831155927,0.0065923971603907665,0.15049868054689297,0.14224290408893728,0.021409565478012066,-0.0,0.009872584649600285,0.0,-0.008179544140949898,-1.5051719469199099,-1.6961066761694996,-0.19093472924958999,-0.19093472924958999,-0.30550290193109914,10.189240455627441,0.0,10.476952207195684,1,-0.00019119308817217018,1.8730532279475228e-05,0.0016350080837354616,10.260170936584473,1,0.021279144287109374,0.0008541527637148105,0.0004929217220668098,-1.6961066761694996,1.5707963267948966,-1.6965861142394205,1,0.00028766284195254067,1.5797575562134558e-05,0.001680369768695029,0.03996472200014978
17.503134545000194,10.47393979591897,0.0,0.0,-0.004010834588446162,0.06399579936401845,-0.0,-0.06281359021309628,0.16968784253636748,0.0,-0.0012030582875013351,0.028140206424212805,0.16036748760299138,-0.08468586163457956,0.028140206424212805,0.0,0.0,0.0,0.00973150001993332,0.006876182827262125,0.04701141518071297,0.14290149956098824,0.02681039647627385,-0.0,0.020103559219318164,0.0,0.008036647204894639,-1.5248941674674459,-1.6960057857645539,-0.17111161829710797,-0.17111161829710797,-0.2902352553425182,10.140580177307129,0.0,10.476952207195684,1,-0.0006024822553428067,-1.6371852427740736e-06,0.0010166939521091094,10.260170936584473,1,0.030914783477783203,0.0016107823823684336,-0.00022269211545603175,-1.6960057857645539,1.5707963267948966,-1.6965861142394205,1,0.0003481970849199989,2.5287807039014945e-05,0.001768151968121174,0.03990490699993643
17.601563971000132,10.471615085359867,0.0,0.0,-0.005120303133014879,0.1372388581511955,-0.0,-0.039205608780618115,0.1237471270405266,0.0,-0.00016589848382864147,0.04410930266767314,0.10562555015071592,-0.15162815963001985,0.04410930266767314,0.0,0.0,0.0,0.009602326931800884,0.0067417909893221425,0.12074795487295903,0.09041090153206945,0.033355395865640326,-0.0,0.028764691591772727,0.0,0.015344611075900415,-1.5610224829837283,-1.6960986941414664,-0.13507621115773816,-0.13507621115773816,-0.2561171788179179,10.111396789550781,0.0,10.476952207195684,1,-0.0010674243671633832,-5.499331196190771e-05,0.0003668086060199048,10.260170936584473,1,0.04463224411010742,0.003221971782043923,-7.896172302543062e-05,-1.6960986941414664,1.5707963267948966,-1.6965861142394205,1,0.00029245205877246325,3.849164943136369e-05,0.0015593118439368955,0.03997701800017239
17.701074212000094,10.46953312925187,0.0,0.0,0.0022170003005701103,0.13010843390965907,-0.0,-0.025751290514332864,0.09610987391442082,0.0,0.02169712819159031,-0.06083926622612136,0.07904443487782857,-0.1411286283966322,-0.06083926622612136,0.0,0.0,0.0,-0.008871921735979005,0.00597213225579399,0.13294488446584748,0.05971959728886923,0.036384823601227995,-0.0,0.02274783230390541,0.0,-0.08358709853002677,-1.5744615182240849,-1.6964648033324974,-0.12200328510841274,-0.12200328510841274,-0.34051141357849507,10.058070182800293,0.0,10.476952207195684,1,-0.001483815588762738,-0.00010977314847268922,-0.00022210266036673735,10.260170936584473,1,0.05458745956420898,0.004613202550878929,0.0004095199163447485,-1.6964648033324974,1.5707963267948966,-1.6965861142394205,1,7.278654415387997e-05,4.2754224371091874e-05,0.0012784402120827219,0.03974199999993289
17.80149947100017,10.46786756619234,0.0,0.0,-0.0019245406452901264,-0.008454363760861347,-0.0,0.004307989455665742,0.028454517405570385,0.0,0.05735291168093681,-0.07380642742095897,0.0292932651000065,0.004800046579525527,-0.07380642742095897,0.0,0.0,0.0,-0.0004535468564733462,0.005574083241900921,-0.013576673074063635,-0.008960061854830526,0.03741378722699444,-0.0,0.013421334189184878,0.0,-0.08722776161014385,-1.6224580726539288,-1.6971890947019808,-0.07473102204805215,-0.07473102204805215,-0.18949473559978172,10.031807899475098,0.0,10.476952207195684,1,-0.0018169282006688548,-0.0002149135353397814,-9.885657131482935e-05,10.260170936584473,1,0.0685089111328125,0.007190984397534447,0.004021906465897993,-1.6971890947019808,1.5707963267948966,-1.6965861142394205,1,-0.00036178827753614585,3.36088343085668e-05,0.0005634135103339911,0.03987275999998019
17.901079915000082,10.467186666929395,0.0,0.0,-0.014356442822847076,0.25240907727785417,-0.0,0.03003402815597343,-0.031566962007751505,0.0,0.11534421145915985,-0.21729257029902913,-0.06328055816438784,-0.24637854277728835,-0.21729257029902913,0.0,0.0,0.0,0.027059923285764495,0.005551414660049276,0.21971156117586751,-0.06759245519687089,0.03598429952154839,-0.0,-0.012753508907442085,0.0,-0.20453906139158703,-1.6465436163314506,-1.697788109362033,-0.051244493030582206,-0.051244493030582206,-0.15639048324107427,9.996892929077148,0.0,10.476952207195684,1,-0.0019531080532576796,-0.000291617585674368,0.00018824794597792374,10.260170936584473,1,0.07612838745117187,0.00918030585924874,0.008779669969669104,-1.697788109362033,1.5707963267948966,-1.6965861142394205,1,-0.0007211970735675255,1.689089953049541e-05,1.449105870551041e-05,0.040269222000006266
18.003983823,10.468199038267926,0.0,0.0,-0.0007966482722681833,-0.041282373001974376,-0.0,0.03780705365309157,-0.055527456391795835,0.0,0.1516757756471634,-0.09505623396151487,-0.049798883462464666,0.048037526371669,-0.09505623396151487,0.0,0.0,0.0,-0.0020738787124418194,0.0059873407381341075,-0.04533237936549426,-0.08757667746404445,0.03204634388928121,-0.0,-0.022911229253215332,0.0,-0.07214500470829954,-1.678134075792548,-1.6988918070169687,-0.020757731224420706,-0.020757731224420706,-0.1414098592309954,9.97892951965332,0.0,10.476952207195684,1,-0.0017506337855515142,-0.0004044305614515959,0.00041574393271591817,10.260170936584473,1,0.0843724250793457,0.012463353414904246,0.01665461506422122,-1.6988918070169687,1.5707963267948966,-1.6965861142394205,1,-0.001383415666528931,-2.9635024239835738e-05,-0.0005874763216144146,0.03987831500012362
18.101073859000053,10.470850564255025,0.0,0.0,-0.016793037311553745,0.07148429567792053,-0.0,0.04314992494240302,-0.07204450146061585,0.0,0.1914069950580597,-0.1749619833384534,-0.08062268844121455,-0.06164735864404815,-0.1749619833384534,0.0,0.0,0.0,0.035537558402071595,0.006994618112878937,0.028774300177672737,-0.10081207065613057,0.02869836581083247,-0.0,-0.04072093212701813,0.0,-0.13424105121143526,-1.6989034938912804,-1.6994861577817444,-0.0005826638904640191,-0.0005826638904640191,-0.08411254436009924,9.962512016296387,0.0,10.476952207195684,1,-0.0012203285881316362,-0.00046182905681121207,0.0010425559706943727,10.260170936584473,1,0.0872237205505371,0.014769280528137009,0.021545773767688698,-1.6994861577817444,1.5707963267948966,-1.6965861142394205,1,-0.0017400261253943227,-7.374850412598808e-05,-0.0008599689081360131,0.04012383399981445
18.201618785000164,10.47668414453346,0.0,0.0,-0.020191464722143965,0.07882309208279482,-0.0,0.03665271054381313,-0.06376286531395546,0.0,0.2480539083480835,-0.1716011597542588,-0.07341402736538354,-0.06992255304644628,-0.1716011597542588,0.0,0.0,0.0,0.04676609784948431,0.008824008639893629,0.023104755976901287,-0.08807626648855127,0.024242761275396166,0.0,-0.06532998407954113,-0.0,-0.10627117567471767,-1.724559833895597,-1.7003820058705437,0.024177828025053305,0.024177828025053305,-0.045986083271136104,9.956591606140137,0.0,10.476952207195684,1,-5.3612532444802245e-05,-0.0004835248271502492,0.0016029898417621341,10.260170936584473,1,0.09107379913330078,0.01836886576802504,0.02972793664752245,-1.7003820058705437,1.5707963267948966,-1.6965861142394205,1,-0.0022775349786738897,-0.00015755102834644249,-0.0009468700348716545,0.039918389000149546
18.301110100000187,10.477874091720881,0.0,0.0,-0.015806531358779335,-0.01688239289392598,-0.0,0.027363389294300468,-0.04661635098735726,0.0,0.280775249004364,-0.1822749006784194,-0.0440322219950644,0.022787338488264332,-0.1822749006784194,0.0,0.0,0.0,0.03838355219828647,0.010528495617152108,-0.06586590130023605,-0.06831767456211489,0.021660044182852684,-0.0,-0.08048504049272957,-0.0,-0.10178986018568983,-1.7390460666871497,-1.7008946688099496,0.03815139787720012,0.03815139787720012,-0.03096846079411804,9.963136672973633,0.0,10.476952207195684,1,0.00018437690503958493,-0.0004763498918350438,0.0019325108090554267,10.260170936584473,1,0.09054651260375976,0.02079192283739118,0.035295079408663776,-1.7008946688099496,1.5707963267948966,-1.6965861142394205,1,-0.0025851327423174197,-0.00022403849072649237,-0.0008809279099805691,0.04033866700001454
18.401541378000047,10.479451455232889,0.0,0.0,-0.01995437379259074,0.02538293459239425,-0.0,0.019309122088702606,-0.032898383342569615,0.0,0.32747238874435425,-0.2200533991831942,-0.035930451228666394,-0.020871024641374275,-0.2200533991831942,0.0,0.0,0.0,0.0485696514318153,0.012777364216980537,-0.0359996594640529,-0.05156746759172802,0.018632316920123036,0.0,-0.10496982882135288,-0.0,-0.11508357036184132,-1.7549285628802986,-1.7017142426311296,0.053214320249169056,0.053214320249169056,-0.025051798226359678,9.974295616149902,0.0,10.476952207195684,1,0.0004998496074410497,-0.0004582954419629996,0.0020811863291199813,10.260170936584473,1,0.08576259613037109,0.02429128456159024,0.04246879335013813,-1.7017142426311296,1.5707963267948966,-1.6965861142394205,1,-0.0030768770350254383,-0.00034013983117766607,-0.000713619041334295,0.03995207399998435
18.503075395999986,10.481662905467568,0.0,0.0,-0.009501454553899433,0.08366671460431538,-0.0,0.014455753093696858,-0.024171851042756466,0.0,0.33460748195648193,-0.18030933283163353,-0.0349273391833379,-0.07977768167279138,-0.18030933283163353,0.0,0.0,0.0,0.025510624065004928,0.013632421415756362,0.04450373251622464,-0.04139815368856245,0.017213198744039548,-0.0,-0.10905407216776487,-0.0,-0.07125526066386866,-1.7587682872346861,-1.7022172098472876,0.05655107738739851,0.05655107738739851,-0.00391784071642742,10.001602172851562,0.0,10.476952207195684,1,0.0009421396543768169,-0.0004253440164218049,0.0015774880195114315,10.260170936584473,1,0.08043422698974609,0.026474228431696098,0.04594223958876498,-1.7022172098472876,1.5707963267948966,-1.6965861142394205,1,-0.003378657364720272,-0.000427973715715124,-0.0005549584115779508,0.03996246300016537
18.60153213700005,10.483363440645295,0.0,0.0,-0.0009506039069558953,-0.12898692326970296,-0.0,-0.0020693235680778327,0.010292917598352151,0.0,0.33036181330680847,-0.020315103043177782,0.027173576865277632,0.1265115300975273,-0.020315103043177782,0.0,0.0,0.0,0.006827631495600873,0.015080424715058615,-0.15089538794660076,-0.005515047533937882,0.015808152773124935,0.0,-0.10830592865750466,-0.0,0.08799082561432688,-1.7678439993450563,-1.7027435914353346,0.06510040790972171,0.06510040790972171,-0.012855810950509045,10.024519920349121,0.0,10.476952207195684,1,0.0012822466899223173,-0.0003508810730971587,0.001221499337855706,10.260170936584473,1,0.07069530487060546,0.029450131497184846,0.049706495843177066,-1.7027435914353346,1.5707963267948966,-1.6965861142394205,1,-0.003694486317548451,-0.0005736710053573197,-0.0003080060333256445,0.03959875900000043
18.70269773000018,10.483284715871841,0.0,0.0,-0.004233552773939497,0.017445227782991513,-0.0,0.00136663329177073,0.0019746649441395483,0.0,0.32423579692840576,-0.05426661248319,-0.0003386734313469775,-0.017553363619231852,-0.05426661248319,0.0,0.0,0.0,0.01337569588947139,0.015585227288466704,-0.011515873553472727,-0.013144704302612036,0.015118817347769525,0.0,-0.10771717035174279,-0.0,0.05345055786855279,-1.7697638615222502,-1.7028003951069532,0.06696346641529693,0.06696346641529693,-0.006224077569030118,10.060710906982422,0.0,10.476952207195684,1,0.001266501735231529,-0.00030069363307975766,0.0008805008918502722,10.260170936584473,1,0.06370553970336913,0.031191341480678716,0.04981029849145328,-1.7028003951069532,1.5707963267948966,-1.6965861142394205,1,-0.003728568520519637,-0.0006727144008424011,-0.00020694937896361212,0.040305351999904815
18.801570117999972,10.483027258732161,0.0,0.0,0.0032358226320667693,0.007314155207511846,-0.0,-0.011603857367115321,0.030852927505818147,0.0,0.2962428331375122,0.004190962068710571,0.029621490097899765,-0.011312264426668453,0.004190962068710571,0.0,0.0,0.0,-0.004210994480745443,0.015931814755908016,-0.004419509592659874,0.015605488209555084,0.015243857504156539,-0.0,-0.09705628957346787,-0.0,0.10124725164217845,-1.772381855400242,-1.7028289964961538,0.06955285890408813,0.06955285890408813,0.020494052259415613,10.083135604858398,0.0,10.476952207195684,1,0.0012150103072954721,-0.00022657462371995915,0.00033329854815241863,10.260170936584473,1,0.053110599517822266,0.03345170988188872,0.047920041115354764,-1.7028289964961538,1.5707963267948966,-1.6965861142394205,1,-0.0037457293540399837,-0.0008214818949544291,5.6757613495037526e-05,0.03995242599989979
18.901067692000197,10.483070219636161,0.0,0.0,0.004899430370801104,-0.11233328945207838,-0.0,-0.02015006594895129,0.05035958349581903,0.0,0.27651846408843994,0.0276604565932682,0.06472150114991487,0.10471858888420127,0.0276604565932682,0.0,0.0,0.0,-0.008080468881327728,0.016136181818465434,-0.12042773390100035,0.03441855527066582,0.0159316107698643,0.0,-0.08972091385246218,-0.0,0.11738137044573038,-1.7741271846522362,-1.7029399669719711,0.07118721768026504,0.07118721768026504,0.02771648997605872,10.115204811096191,0.0,10.476952207195684,1,0.0012236024880955656,-0.000178554340793335,0.00018144182289536086,10.260170936584473,1,0.04639978408813476,0.03473308801008867,0.04585073556944622,-1.7029399669719711,1.5707963267948966,-1.6965861142394205,1,-0.0038123116395303745,-0.0009222941167258239,0.0002293376576075522,0.03991585200014924
19.003411711000126,10.482508680287754,0.0,0.0,0.005965759973331953,0.008304186261607855,-0.0,-0.024172671441281154,0.06121701272713266,0.0,0.22277012467384338,0.02536293489286366,0.05958899041724981,-0.01629829370683657,0.02536293489286366,0.0,0.0,0.0,-0.011636290067188975,0.01566474180033839,0.004219992333299861,0.043426429169363574,0.01777682651161428,0.0,-0.06560190010500062,-0.0,0.09096483499786429,-1.7765706456050279,-1.7029498521044668,0.07362079350056128,0.07362079350056128,0.02988787721909713,10.133877754211426,0.0,10.476952207195684,1,0.0011112946184141492,-0.00010764460302865924,-0.0003271127998667071,10.260170936584473,1,0.037887954711914064,0.036357606964153424,0.03918806282277485,-1.7029498521044668,1.5707963267948966,-1.6965861142394205,1,-0.0038182427190277756,-0.0010751290699892798,0.000459986333810249,0.04003461099978267
19.101015599999982,10.481485329248244,0.0,0.0,0.007659530623305263,-0.06504163043089052,-0.0,-0.027901534055309603,0.07093498937315204,0.0,0.17825041711330414,0.14537857870026305,0.07888410525200297,0.055131518617471946,0.14537857870026305,0.0,0.0,0.0,-0.016008321637271984,0.015360392027667603,-0.06446797422607421,0.05169934854681213,0.019215251287279314,0.0,-0.044009489242273554,-0.0,0.1893880679425366,-1.7774433102310252,-1.7028982585341705,0.07454505169685444,0.07454505169685444,0.04116339480188213,10.155821800231934,0.0,10.476952207195684,1,0.0009066244105120802,-6.788761807790323e-05,-0.0004557160042525419,10.260170936584473,1,0.03306283950805664,0.037269627984256794,0.03456880088386812,-1.7028982585341705,1.5707963267948966,-1.6965861142394205,1,-0.003787286576850013,-0.0011764004905018134,0.0005618568969568289,0.03994740699999966
19.2017374510001,10.480880367590172,0.0,0.0,0.0013414827183413785,0.08413790848201722,-0.0,-0.021809195426260874,0.05941881563033236,0.0,0.12407606095075607,0.038301319114576404,0.047828013987908334,-0.09122644557699364,0.038301319114576404,0.0,0.0,0.0,-0.002254323770306568,0.014932255819413988,0.07141459465309179,0.038181362847395976,0.021234661351516585,-0.0,-0.01905537180919972,-0.0,0.05735669092377613,-1.7793631724082188,-1.7027954118378703,0.07656776057034875,0.07656776057034875,0.04766432870715586,10.165262222290039,0.0,10.476952207195684,1,0.0007856320788977912,-2.054323509595789e-05,-0.0004482987483270766,10.260170936584473,1,0.028472614288330075,0.03846469453889562,0.025379799108197505,-1.7027954118378703,1.5707963267948966,-1.6965861142394205,1,-0.0037255785590698753,-0.0013264380805166167,0.0005979861439601508,0.039744703999986086
19.301024488000166,10.48056202087155,0.0,0.0,0.005131689242873831,0.043724755828814486,-0.0,-0.02276670121041421,0.06290548285296531,0.0,0.04831323400139809,0.17876759141977397,0.056607937754055225,-0.05161875074512329,0.17876759141977397,0.0,0.0,0.0,-0.011013781085013025,0.014408780845683975,0.04028030044897234,0.04023360727469678,0.022660728119242513,0.0,0.02115313034847536,-0.0,0.15761446107129862,-1.779886771183817,-1.7027069522448328,0.07717981893898429,0.07717981893898429,0.050928159106438366,10.170212745666504,0.0,10.476952207195684,1,0.0007219627351734204,1.0304647524461486e-05,-0.0006068422693754253,10.260170936584473,1,0.027252101898193357,0.039193930465492,0.01712241888517166,-1.7027069522448328,1.5707963267948966,-1.6965861142394205,1,-0.0036725028032473794,-0.0014245849597869435,0.0006183898593004636,0.04018805500004419
19.401692895999986,10.479273301205671,0.0,0.0,0.006027368649708244,0.03893592925509738,-0.0,-0.004802550002609892,0.023653473560592376,0.0,-0.005638571921736002,0.13007147519093654,0.018327596885722528,-0.04170842349974457,0.13007147519093654,0.0,0.0,0.0,-0.014077973279837909,0.013278679390412568,0.03973302218212155,4.081452090661485e-06,0.023646629823513777,-0.0,0.04795202930182055,-0.0,0.082119445889116,-1.7819811662862104,-1.7026878674640251,0.0792932988221855,0.0792932988221855,0.07164649252610562,10.168143272399902,0.0,10.476952207195684,1,0.000464218801997518,4.446013975641796e-05,-0.0008803890556083776,10.260170936584473,1,0.02760829925537109,0.040285058868371554,0.0063881187908889385,-1.7026878674640251,1.5707963267948966,-1.6965861142394205,1,-0.00366105193476276,-0.0015703596204024424,0.00043071675805106483,0.039913999999953376
19.502617340000143,10.477742310989276,0.0,0.0,0.019442968305566122,-0.0009374888899897035,-0.0,-0.007669999854031119,0.029977358363077994,0.0,-0.03945927321910858,0.11892549289476949,0.029840049996707575,-0.0030153467530698126,0.11892549289476949,0.0,0.0,0.0,-0.04582278115968569,0.011620884509845207,0.033258793105852356,0.005842068698816,0.02412105686871889,-0.0,0.06577898300273664,-0.0,0.053146509892032845,-1.7826792979870079,-1.7027678396027917,0.07991145838421598,0.07991145838421598,0.06803388289516799,10.160303115844727,0.0,10.476952207195684,1,0.00015802075871853562,5.444803973630013e-05,-0.001598037383654931,10.260170936584473,1,0.02894468307495117,0.04105035903703077,0.00017732300680389207,-1.7027678396027917,1.5707963267948966,-1.6965861142394205,1,-0.0037090352180226827,-0.0016693425264840062,0.00036386366266466096,0.03974222200008626
19.60171817300011,10.474960171658019,0.0,0.0,0.032144446374574503,-0.17724720746663658,-0.0,0.0024765005374749404,0.0057617287202053336,0.0,-0.0815989300608635,0.1952165627745523,0.029077099690738732,0.17494082526997803,0.1952165627745523,0.0,0.0,0.0,-0.0771516587538606,0.00834681174815853,-0.10844294595766307,-0.01766908717974544,0.02343841552204183,-0.0,0.08963844578417642,-0.0,0.10557811699037586,-1.783028363837407,-1.7030063802869229,0.08002198355048407,0.08002198355048407,0.07572046910536442,10.152094841003418,0.0,10.476952207195684,1,-0.000398407107532961,4.049522196873229e-05,-0.0025665775370706276,10.260170936584473,1,0.0324228286743164,0.04229196962803056,-0.006916318722916419,-1.7030063802869229,1.5707963267948966,-1.6965861142394205,1,-0.003852159628501406,-0.0018205203223052462,0.0001177772247609389,0.04000283299978946
19.70102367300001,10.472743148469721,0.0,0.0,0.028038720294091286,-0.009337124047857706,-0.0,0.01607503244413138,-0.0263786095554911,0.0,-0.0794517919421196,0.07750006252873338,-0.024914461559740298,0.012739016161162216,0.07750006252873338,0.0,0.0,0.0,-0.0703783370186143,0.005529903118601591,0.055486635641738835,-0.04857816494687394,0.022242593144914048,-0.0,0.08897044078254467,-0.0,-0.011470378253811276,-1.7818066333610112,-1.7032476385483397,0.07855899481267148,0.07855899481267148,0.07715700912796099,10.136347770690918,0.0,10.476952207195684,1,-0.0008418117451924446,1.102727844128671e-05,-0.003120648429436778,10.260170936584473,1,0.035462665557861324,0.04321662804050237,-0.009847017569575518,-1.7032476385483397,1.5707963267948966,-1.6965861142394205,1,-0.003996914585351519,-0.001925758545510808,-8.327849176717407e-05,0.04015648099993996
19.801697858000125,10.467713693956265,0.0,0.0,0.05348193314225415,-0.21755091037065707,-0.0,0.008373655878379035,-0.0128415583769763,0.0,-0.1208675354719162,0.2425249901450444,0.016087792274152704,0.21733496535163108,0.2425249901450444,0.0,0.0,0.0,-0.1318275326143229,-0.00013441464546763314,-0.0855956616235332,-0.03286170840364835,0.02006293294154125,0.0,0.11536902168261448,-0.0,0.1271559684624299,-1.7776178431562246,-1.703644014370616,0.07397382878560865,0.07397382878560865,0.07649166699944847,10.125697135925293,0.0,10.476952207195684,1,-0.0018477026478837645,-7.755349466398067e-05,-0.004514416448981237,10.260170936584473,1,0.0403421401977539,0.04476517207617581,-0.013693144941488414,-1.703644014370616,1.5707963267948966,-1.6965861142394205,1,-0.0042347400787172695,-0.002092017552455022,-0.00023672667392519385,0.039954907000037565
19.901083210000024,10.463404463588311,0.0,0.0,0.051537121616678595,-0.2115955333136037,-0.0,0.007986412652204171,-0.014099737668506933,0.0,-0.09381616115570068,0.14607670113134966,0.01411400656508637,0.21159458201775816,0.14607670113134966,0.0,0.0,0.0,-0.13110554410133826,-0.0046106946375523,-0.07588539037147539,-0.03271570927477553,0.018655308393981426,0.0,0.10178865565548736,-0.0,0.0442880454758623,-1.7732545200262386,-1.703937688226012,0.06931683180022663,0.06931683180022663,0.06782561890162164,10.110272407531738,0.0,10.476952207195684,1,-0.0027095487214744197,-0.00017726751988935362,-0.005169491278929564,10.260170936584473,1,0.043376255035400386,0.04590285058633006,-0.013447507351618824,-1.703937688226012,1.5707963267948966,-1.6965861142394205,1,-0.004410944391954885,-0.0022081304695308556,-0.00026528942938987564,0.040169814999899245
20.003490747000114,10.45658683323469,0.0,0.0,0.052754369174689515,-0.16649680324779956,-0.0,0.008219215173560742,-0.017492664071674414,0.0,-0.08706862479448318,0.13602861819114806,0.004823512183141223,0.1673436957829007,0.13602861819114806,0.0,0.0,0.0,-0.13880631105812,-0.012028458391861167,-0.015668494366562934,-0.03409911558174602,0.016647918149091338,0.0,0.10178920535084719,-0.0,0.03423941284030087,-1.7633061432898711,-1.7042913654692309,0.05901477782064024,0.05901477782064024,0.06282813805535083,10.100733757019043,0.0,10.476952207195684,1,-0.004073074792198739,-0.0003948220797276775,-0.005871511707074966,10.260170936584473,1,0.047831153869628905,0.047755575305762216,-0.013006678385128987,-1.7042913654692309,1.5707963267948966,-1.6965861142394205,1,-0.004623150737886217,-0.0023903609827778333,-0.0002668710974779431,0.040066148000050816
20.101054877000024,10.452592287396733,0.0,0.0,0.051955327589041735,-0.24448197483797954,-0.0,0.00562837951775398,-0.013599513053436336,0.0,-0.07428757846355438,0.13402436765787287,0.019111707711636904,0.2441129357578455,0.13402436765787287,0.0,0.0,0.0,-0.1391611722447991,-0.01673700973902468,-0.08858682355267773,-0.028914966657683634,0.015343429851057666,0.0,0.09826777332879971,-0.0,0.03575659432907317,-1.7540558982543013,-1.7044959533580628,0.049559944896238495,0.049559944896238495,0.037846324118191416,10.078253746032715,0.0,10.476952207195684,1,-0.004871983959790072,-0.0005817097046595217,-0.005846057039599168,10.260170936584473,1,0.052120113372802736,0.049117386622538034,-0.01174545624422896,-1.7044959533580628,1.5707963267948966,-1.6965861142394205,1,-0.0047459034711853755,-0.0025160154687824503,-0.000252868204861663,0.04016155500016794
20.201733729000125,10.447986907871892,0.0,0.0,0.034924189444728845,-0.016867679552214482,-0.0,-0.006871245318148046,0.013296893300035134,0.0,0.0009745194693095982,-0.09222373152018234,0.015428780931269485,0.014942513305451965,-0.09222373152018234,0.0,0.0,0.0,-0.10290972531082723,-0.022947057864309367,0.10898458466509431,-0.0015053933190264058,0.014779318302262503,-0.0,0.06059415837084661,-0.0,-0.15281788989102896,-1.739918731313147,-1.7046342063707052,0.03528452494244183,0.03528452494244183,0.03670699602946435,10.066816329956055,0.0,10.476952207195684,1,-0.005793059864758377,-0.0009134459502349169,-0.005146452608835692,10.260170936584473,1,0.05800638198852539,0.05,-0.006041598567804762,-1.7046342063707052,1.5707963267948966,-1.6965861142394205,1,-0.004828855278770794,-0.0027084036104199185,-1.8256119423881347e-05,0.03998948100002053
20.301028116999987,10.446376037935346,0.0,0.0,0.03323065808269995,-0.11649971276226254,-0.0,-0.017725733454966926,0.03801472323388766,0.0,0.00496317446231842,0.011020310123894594,0.05322123263294636,0.11038479357804934,0.011020310123894594,0.0,0.0,0.0,-0.09924892021501344,-0.026614544119164987,0.009333674000002394,0.02257805888286609,0.015380277544193242,0.0,0.06193453481147865,-0.0,-0.05091422468758405,-1.7348572764823638,-1.704642406450879,0.03021487003148504,0.03021487003148504,0.06227570374580549,10.050094604492188,0.0,10.476952207195684,1,-0.006115233852067448,-0.001155483648223076,-0.004611769969288361,10.260170936584473,1,0.06119842529296875,0.05,-0.0030110261448525674,-1.704642406450879,1.5707963267948966,-1.6965861142394205,1,-0.004833775326875056,-0.0028377638565340113,0.00020855976610854594,0.03991140800007997
20.4016591730001,10.446167472698516,0.0,0.0,0.008467839521408272,0.08699105215378161,-0.0,-0.018157543755293184,0.04022425752785701,0.0,0.08328386396169662,-0.1961282841738572,0.028263066795248863,-0.09157856246860732,-0.1961282841738572,0.0,0.0,0.0,-0.04185200832476095,-0.02992480707163662,0.15873630608076114,0.0236457883804651,0.016563750336208313,-0.0,0.02132852782451861,0.0,-0.2174568119983758,-1.7188002473640156,-1.7045632022989508,0.014237045065065068,0.014237045065065068,0.002221853131404831,10.04507827758789,0.0,10.476952207195684,1,-0.006156946899433535,-0.0015236569507855536,-0.00287519677599125,10.260170936584473,1,0.06452779769897461,0.05,0.004303612636919701,-1.7045632022989508,1.5707963267948966,-1.6965861142394205,1,-0.004786252835718141,-0.003029749763549002,0.0004065444714580945,0.03997679600001902
20.502375877000077,10.446711756461875,0.0,0.0,0.0011980958598423247,0.09076707855862128,-0.0,-0.021762248366868252,0.049716056832381096,0.0,0.09724991023540497,-0.12745972589468946,0.03717019695063941,-0.09658532660646829,-0.12745972589468946,0.0,0.0,0.0,-0.02407378545640237,-0.03147005653257557,0.1462655861433367,0.03168305456465876,0.018030506433599883,-0.0,0.015711119553417047,0.0,-0.14317084544810652,-1.7125170620568362,-1.7045246081398833,0.007992453916952691,0.007992453916952691,-0.03313044859696037,10.042978286743164,0.0,10.476952207195684,1,-0.0060480901467617094,-0.0017670746903208211,-0.0019293690559853106,10.260170936584473,1,0.06513404846191406,0.05,0.008301061029185982,-1.7045246081398833,1.5707963267948966,-1.6965861142394205,1,-0.00476309634027765,-0.0031567914299667366,0.0005590278418573863,0.040116889000046285
20.601680247000104,10.448610919188607,0.0,0.0,-0.010530863683382592,-0.0005612211830177468,-0.0,-0.02080067838274406,0.049019862945026235,0.0,0.16900503635406494,-0.23796573952557118,0.048656970287262236,-0.005980064784758125,-0.23796573952557118,0.0,0.0,0.0,0.00579022084991033,-0.03165262496131181,0.02525977376648378,0.029245269126879584,0.019795558242055693,-0.0,-0.02256011499409854,0.0,-0.21540562453147263,-1.7071065413756539,-1.7045339428424164,0.0025725985332374357,0.0025725985332374357,0.0061546890013848155,10.04386043548584,0.0,10.476952207195684,1,-0.005668257601415406,-0.002115232607319405,-0.00011545490650672114,10.260170936584473,1,0.06489315032958984,0.05,0.016511694367644193,-1.7045339428424164,1.5707963267948966,-1.6965861142394205,1,-0.0047686971617975525,-0.003346850886012316,0.0006081738136474352,0.03999603700003718
20.701019783999982,10.45091862523453,0.0,0.0,-0.01702601202018747,0.10079612491291565,-0.0,-0.012186270928740087,0.030473570589548034,0.0,0.16388171911239624,-0.10800120886972266,0.0167569454259543,-0.10396009850864826,-0.10800120886972266,0.0,0.0,0.0,0.022300393114640504,-0.031356278614002385,0.10983780063757026,0.009837310716261413,0.020656113017565536,-0.0,-0.01826873271504634,0.0,-0.08973247615467632,-1.705710277974058,-1.7045765017956072,0.001133776178450674,0.001133776178450674,0.006008323758909087,10.049623489379883,0.0,10.476952207195684,1,-0.005206716392230604,-0.0023302557377853374,0.0006475024346650637,10.260170936584473,1,0.06351871490478515,0.05,0.019915116349200502,-1.7045765017956072,1.5707963267948966,-1.6965861142394205,1,-0.004794232533711984,-0.0034745201991763504,0.0005539866751761619,0.039914091999889934
20.801671747,10.45762797714692,0.0,0.0,-0.01866538260640489,-0.01737552676051101,-0.0,-0.005564594742816597,0.014748471348781461,0.0,0.18424667418003082,-0.07039686423363131,0.016938455554795315,0.015248444535403787,-0.07039686423363131,0.0,0.0,0.0,0.030824716506231302,-0.029476912060549244,-0.018726292175422366,-0.005969662980473778,0.02072806634157689,-0.0,-0.029284168908324706,-0.0,-0.04111269532530661,-1.705710277974058,-1.7048513482065555,0.0008589297675025698,0.0008589297675025698,0.010924004792773006,10.057522773742676,0.0,10.476952207195684,1,-0.003864846009752654,-0.002590778785009352,0.0018014769639167984,10.260170936584473,1,0.06079444885253906,0.05,0.024645277146950577,-1.7048513482065555,1.5707963267948966,-1.6965861142394205,1,-0.004959140380280979,-0.003670498617418815,0.0003515610819405705,0.039944815000126255
20.901080116999992,10.461774068853627,0.0,0.0,-0.03558323321563623,0.10548554493278878,-0.0,0.010274625603537257,-0.02238495049846122,0.0,0.20422601699829102,-0.16802994768371615,-0.03631458924707953,-0.10153588925302154,-0.16802994768371615,0.0,0.0,0.0,0.07171346913421678,-0.027297071603937663,0.061059056577512094,-0.042080131295398185,0.019660234104660126,-0.0,-0.04136779431257368,-0.0,-0.12666215337114248,-1.7078046730764513,-1.7051657367155866,0.002638936360864541,0.002638936360864541,0.013217612333365056,10.069931030273438,0.0,10.476952207195684,1,-0.0030356276684113228,-0.0027201528572385015,0.002769578734657582,10.260170936584473,1,0.058712768554687496,0.05,0.02656692458931403,-1.7051657367155866,1.5707963267948966,-1.6965861142394205,1,-0.0051477734856996355,-0.0038058574216162447,0.00010092410385396315,0.0400911660001384
21.003043875999992,10.465875889172887,0.0,0.0,-0.029084019749945306,0.127259499365871,-0.0,0.01359303374147008,-0.033383186440320865,0.0,0.1906096488237381,-0.07385632243119315,-0.05019976812243864,-0.12161167952221831,-0.07385632243119315,0.0,0.0,0.0,0.059253023307101485,-0.024617175003734146,0.0926059964898474,-0.05108871593632905,0.017667755298608465,-0.0,-0.03533876737358025,-0.0,-0.0385175550576129,-1.7139133254584313,-1.705734067505787,0.008179257952644292,0.008179257952644292,0.029419996469861587,10.080009460449219,0.0,10.476952207195684,1,-0.0022152636045593256,-0.0028664019249389425,0.0029308381918718147,10.260170936584473,1,0.05404844284057617,0.05,0.027663260360528165,-1.705734067505787,1.5707963267948966,-1.6965861142394205,1,-0.005488771959819915,-0.004020313426381212,-0.00012002447975108731,0.04002981400003591
21.10109972800001,10.467141117029618,0.0,0.0,-0.01997738156289267,-0.023965958797489657,-0.0,0.01444939830299468,-0.03848566780553436,0.0,0.19376049935817719,-0.07307875083065599,-0.034899904227935964,0.028939773537500487,-0.07307875083065599,0.0,0.0,0.0,0.039355208748890355,-0.022934787780412504,-0.04040632648389022,-0.054176338150124605,0.01566309250456442,0.0,-0.039131920554415806,-0.0,-0.033946830276240174,-1.719672911990013,-1.7061422684534016,0.013530643536611375,0.013530643536611375,0.07696167734599582,10.09818172454834,0.0,10.476952207195684,1,-0.001962218033213148,-0.002946444761364251,0.0028200124811803423,10.260170936584473,1,0.05036659240722656,0.05,0.02817403936025761,-1.7061422684534016,1.5707963267948966,-1.6965861142394205,1,-0.005733692528388623,-0.004171493678366638,-0.0002710237403066934,0.03988329700018767
21.201431247000073,10.46743672372192,0.0,0.0,-0.015015269424570729,-0.15757115500364785,-0.0,0.022309981656555483,-0.062379143409051194,0.0,0.16650602221488953,0.04668854235708816,-0.04041955910014025,0.1645785091188423,0.04668854235708816,0.0,0.0,0.0,0.027796673379426873,-0.020726322666278326,-0.16468905654463067,-0.07367590010486337,0.011264753599517245,0.0,-0.026676575643899587,-0.0,0.07336511800098774,-1.7308430192027764,-1.706917322612837,0.023925696589939704,0.023925696589939704,0.06627932941009182,10.10966682434082,0.0,10.476952207195684,1,-0.0019030966947525486,-0.0030620933845002443,0.002584772190785188,10.260170936584473,1,0.0451512336730957,0.05,0.026893829135294502,-1.706917322612837,1.5707963267948966,-1.6965861142394205,1,-0.006198725024049834,-0.0044126343156849,-0.0005677045059204049,0.040044889000000694
21.301073358000167,10.467193504704401,0.0,0.0,-0.014223016976205068,0.01884512158970557,-0.0,0.03310820448707257,-0.09065640844917772,0.0,0.13090890645980835,0.10460942630820202,-0.09237831041137502,-0.0063222437610841245,0.10460942630820202,0.0,0.0,0.0,0.024760370173861408,-0.019867472662515644,0.01384750133640752,-0.09876250743822848,0.008061110945764876,-0.0,-0.008725518044830946,-0.0,0.11333494435303297,-1.7348572764823638,-1.7074195053818693,0.0274377711004945,0.0274377711004945,0.0886638627051675,10.122477531433105,0.0,10.476952207195684,1,-0.0019517404982565267,-0.0031386502330493816,0.0021220874704923885,10.260170936584473,1,0.04217977523803711,0.05,0.024186601147052993,-1.7074195053818693,1.5707963267948966,-1.6965861142394205,1,-0.0065000346854692465,-0.0045840438189698315,-0.0006997658440467476,0.03998396300016793
21.40167745000008,10.465766013444476,0.0,0.0,-0.014317497855397023,-0.04225702251306725,-0.0,0.030849102657115903,-0.09347018213958022,0.0,0.10649888962507248,0.1010915578405188,-0.0867977059217583,0.05466707553542752,0.1010915578405188,0.0,0.0,0.0,0.024062330140126164,-0.018032869813739673,-0.048377414275674144,-0.095904949129408,0.002392564444828514,0.0,0.0022146118827024133,-0.0,0.09887694595781639,-1.7500416409747144,-1.708264002180537,0.041777638794177285,0.041777638794177285,0.12986798382305284,10.127402305603027,0.0,10.476952207195684,1,-0.002237238750241488,-0.0032694089193940944,0.002126572605204997,10.260170936584473,1,0.039830589294433595,0.05,0.020359320135142894,-1.708264002180537,1.5707963267948966,-1.6965861142394205,1,-0.007006732764669943,-0.00485753335786778,-0.0008797899155318249,0.03985988899989934
21.50236519100008,10.46433484124996,0.0,0.0,-0.01811558407880918,-0.011548551889199142,-0.0,0.03864511976974153,-0.1163029742642492,0.0,0.07859399914741516,0.14549939357004207,-0.11360618442269146,0.027447873039008884,0.14549939357004207,0.0,0.0,0.0,0.03170832304457771,-0.01680814199305046,-0.026591450591171847,-0.11456394177034955,-0.0018059339192692371,0.0,0.01672039923359633,-0.0,0.12877899433644574,-1.755626694581096,-1.7088860676048274,0.046740626976268906,0.046740626976268906,0.13951075786339096,10.129170417785645,0.0,10.476952207195684,1,-0.0025234731891448092,-0.003365522881020988,0.0021862861025283035,10.260170936584473,1,0.03938455581665039,0.05,0.017076775386758652,-1.7088860676048274,1.5707963267948966,-1.6965861142394205,1,-0.00737997201924414,-0.0050512590208438325,-0.0009981681766930133,0.039969908000102805
21.60173917200018,10.4620243577964,0.0,0.0,-0.02123509435529236,0.07985881786359714,-0.0,0.03647841717024,-0.11998187876281782,0.0,0.06359588354825974,0.016864988033717845,-0.12988588301546694,-0.06247190900972315,0.016864988033717845,0.0,0.0,0.0,0.03751494819942039,-0.014837454710251675,0.05705413341465453,-0.11178633719804096,-0.008269582936126224,0.0,0.023172578472626677,-0.0,-0.006307590438908833,-1.760339083561481,-1.7097412433913706,0.05059784017011015,0.05059784017011015,0.09757834427628619,10.127108573913574,0.0,10.476952207195684,1,-0.002985569879856698,-0.0035336514827950306,0.0023363761889140864,10.260170936584473,1,0.03991870880126953,0.05,0.012298138868034655,-1.7097412433913706,1.5707963267948966,-1.6965861142394205,1,-0.00789307749117003,-0.005360986270586399,-0.0010794905216585484,0.039596926000058374
21.70102213500013,10.460800825254683,0.0,0.0,-0.02068860058626795,0.04185819469047942,-0.0,0.03950435359938404,-0.1323138339346641,0.0,0.03451751172542572,0.11565165252100673,-0.13684645051234692,-0.023067468335466055,0.11565165252100673,0.0,0.0,0.0,0.03555187352869972,-0.013611713460378693,0.019768849681217962,-0.1196203469548108,-0.012771615777704338,0.0,0.03941189292734169,-0.0,0.07623975959366505,-1.7606881494118796,-1.7101949614564227,0.050493187955456875,0.050493187955456875,0.10285193489656734,10.121379852294922,0.0,10.476952207195684,1,-0.003230276388200082,-0.0036592471820340055,0.0023608654970114613,10.260170936584473,1,0.041000175476074215,0.05,0.009203824461587639,-1.7101949614564227,1.5707963267948966,-1.6965861142394205,1,-0.008165308330201303,-0.005575855966414156,-0.0011273670834599573,0.04022990699991169
21.801778153999976,10.458751052571904,0.0,0.0,-0.017498909095789363,0.0444078314065852,-0.0,0.024836485043006392,-0.10675386593309372,0.0,0.02569846250116825,0.05131812439366448,-0.1119064621548112,-0.02907554143761471,0.05131812439366448,0.0,0.0,0.0,0.02672333101394917,-0.012167835278796906,0.029793356259245875,-0.08850499995918909,-0.018290420782107054,0.0,0.04453310743144983,-0.0,0.006785016962214651,-1.7561502933566944,-1.7108055901288477,0.04534470322784667,0.04534470322784667,0.09014234593513193,10.112961769104004,0.0,10.476952207195684,1,-0.003640230924755983,-0.0038691064425430965,0.0021573969142138845,10.260170936584473,1,0.044162750244140625,0.05,0.005757557976110673,-1.7108055901288477,1.5707963267948966,-1.6965861142394205,1,-0.008531685533656307,-0.0059132405893358,-0.0009481342699965346,0.039742703999991136
21.90101037600016,10.457488869271996,0.0,0.0,-0.016888152270557056,-0.0015091628786539446,-0.0,0.023048744723589334,-0.10685793196159613,0.0,0.0145501047372818,0.0840493390432427,-0.10559565863987369,0.016445427088241947,0.0840493390432427,0.0,0.0,0.0,0.024427824841555708,-0.011209747340582318,-0.014778040781136169,-0.08531719708045511,-0.021577957078114218,0.0,0.051702125966972025,-0.0,0.03234721307627068,-1.7498671080495147,-1.7111726685061674,0.03869443954334706,0.03869443954334706,0.07231427465754296,10.09885025024414,0.0,10.476952207195684,1,-0.0038926675847374527,-0.004021747020426308,0.00212981908076839,10.260170936584473,1,0.04662609100341797,0.05,0.0040942236788172005,-1.7111726685061674,1.5707963267948966,-1.6965861142394205,1,-0.00875193256004816,-0.006144096947695524,-0.0008357698961465808,0.04002625899988743
22.003891190000104,10.456013418803808,0.0,0.0,-0.022154755890972284,0.0407132398603945,-0.0,0.00916947713864922,-0.08070045376364472,0.0,0.02523454651236534,0.009788324094663237,-0.08561874114691274,-0.028975201500699287,0.009788324094663237,0.0,0.0,0.0,0.035090813232752475,-0.009728199281231694,0.01534258466909824,-0.05562277279737418,-0.02509710974084435,0.0,0.047366765181592156,0.0,-0.03757844108692892,-1.7371262045099563,-1.7117134086150092,0.02541279589494705,0.02541279589494705,0.05054339665093811,10.090033531188965,0.0,10.476952207195684,1,-0.0041877576783750925,-0.004270506492583892,0.0022538779312378256,10.260170936584473,1,0.05104122161865234,0.05,0.003137933529699937,-1.7117134086150092,1.5707963267948966,-1.6965861142394205,1,-0.00907637662535321,-0.006504614621606066,-0.0005326101586524961,0.039752741000029346
22.101023450000184,10.456046602119386,0.0,0.0,-0.018829578654267883,0.01730792426809756,-0.0,-0.004335639754166775,-0.052522179562997394,0.0,0.0065882448107004166,0.10624294666190362,-0.054434581354425575,-0.009747817257538479,0.10624294666190362,0.0,0.0,0.0,0.027479661727421313,-0.00868955748659112,-0.0014839777623555381,-0.02613391614687128,-0.026380455659248753,0.0,0.06013541050211303,0.0,0.046107536159790595,-1.7268287619231897,-1.711929135314148,0.01489962660904176,0.01489962660904176,0.014627169702642889,10.073090553283691,0.0,10.476952207195684,1,-0.004181121015259493,-0.0044392126947680926,0.002281510386405754,10.260170936584473,1,0.054475021362304685,0.05,0.00233890761858412,-1.711929135314148,1.5707963267948966,-1.6965861142394205,1,-0.009205812644836442,-0.00674868379015749,-0.00026019611320523964,0.03990468500001043
22.201676024000108,10.457852979688147,0.0,0.0,-0.028327029124105892,0.05642530846824853,-0.0,-0.015063799251982084,-0.02969415610604412,0.0,0.03052455745637417,0.013116535547054019,-0.03733952821960051,-0.05168479442664713,0.013116535547054019,0.0,0.0,0.0,0.049939462434528646,-0.006246778522475522,0.01271092621635981,-0.0026072832060272002,-0.027046069813479047,0.0,0.049572580786858784,0.0,-0.036456045239804766,-1.7105971998796423,-1.71199802675124,-0.0014008268715977046,-0.0014008268715977046,0.01190247202978842,10.060306549072266,0.0,10.476952207195684,1,-0.003819845501507402,-0.004676550829316408,0.002869122858776393,10.260170936584473,1,0.059959316253662104,0.05,0.003186209180810044,-1.71199802675124,1.5707963267948966,-1.6965861142394205,1,-0.009247147507091701,-0.007119307658891168,0.00011752718398842029,0.03968024100004186
22.301017783000134,10.459093095291568,0.0,0.0,-0.034412271611258226,0.14341206496357695,-0.0,-0.02669714277397351,-0.003248234948992015,0.0,0.05764713138341904,-0.07023498055247918,-0.02338342976831072,-0.14153016151927314,-0.07023498055247918,0.0,0.0,0.0,0.06439835147701888,-0.004303170913711719,0.08324873915805805,0.023228409874365898,-0.026388806487852887,0.0,0.03637727407853652,0.0,-0.10661225463101569,-1.6999506914424771,-1.7118900539757147,-0.011939362533237574,-0.011939362533237574,-0.023542557585794884,10.044668197631836,0.0,10.476952207195684,1,-0.0035718223808231643,-0.004821360094237039,0.0032528888079014604,10.260170936584473,1,0.06334791183471679,0.05,0.00492800967959644,-1.7118900539757147,1.5707963267948966,-1.6965861142394205,1,-0.009182363841776509,-0.007364063077181056,0.0004076522696958274,0.0399338520001038
22.401675635000174,10.462482479961974,0.0,0.0,-0.03510273881857989,0.015024616746347624,-0.0,-0.03194968556534393,0.009969548902988358,0.0,0.061174552887678146,0.053372091026597034,0.007761547177974837,-0.016275423162172363,0.053372091026597034,0.0,0.0,0.0,0.06856811379444036,-0.00045311994752281594,-0.05318794308547641,0.0349243495205387,-0.024847606032528675,0.0,0.038332346686695225,0.0,0.015039744339901809,-1.6865116562021205,-1.7116491849945503,-0.02513752879242981,-0.02513752879242981,-0.02032167302099416,10.0352201461792,0.0,10.476952207195684,1,-0.0028939454467419527,-0.005009887050381011,0.003968418130561412,10.260170936584473,1,0.06748523712158203,0.05,0.007576560243921493,-1.7116491849945503,1.5707963267948966,-1.6965861142394205,1,-0.009037842453077882,-0.007726947439232078,0.0006898086544836216,0.04000672200004374
22.50228554199998,10.466139397472778,0.0,0.0,-0.04567234833775413,0.09218837924047317,-0.0,-0.030892268294663877,0.008898466322270673,0.0,0.08116182684898376,0.0324661347302918,-0.004116654279305966,-0.09252531073937857,0.0324661347302918,0.0,0.0,0.0,0.09475927823975641,0.0028963006051999085,-0.005558382437440636,0.03254643189895633,-0.023513157278714968,-0.0,0.02917549930950969,0.0,0.003290635420782112,-1.6795303391941432,-1.7114859048782713,-0.03195556568412794,-0.03195556568412794,-0.0579685818411976,10.025145530700684,0.0,10.476952207195684,1,-0.002162561944581043,-0.005105594701599212,0.004668207508315397,10.260170936584473,1,0.06972713470458984,0.05,0.010060524326910071,-1.7114859048782713,1.5707963267948966,-1.6965861142394205,1,-0.008939874383310497,-0.007966046438306071,0.0008074852082964739,0.039974000000029264
22.60168452300013,10.47238737994536,0.0,0.0,-0.04434901666135883,0.1014833419641274,-0.0,-0.03206234130337652,0.013352177656293516,0.0,0.1085851863026619,-0.015020127989719367,-0.0009844458369809763,-0.10235321299679505,-0.015020127989719367,0.0,0.0,0.0,0.09543125200067605,0.008128201835271538,-0.0021742741811922473,0.03488878977693602,-0.021400832832016433,-0.0,0.016357024782387253,0.0,-0.03137715277210662,-1.6723744892609664,-1.711232893665963,-0.03885840440499688,-0.03885840440499688,-0.05849054319228652,10.019953727722168,0.0,10.476952207195684,1,-0.0009129654500647178,-0.005185104264003141,0.00512689487119814,10.260170936584473,1,0.07206516265869141,0.05,0.01378173161461591,-1.711232893665963,1.5707963267948966,-1.6965861142394205,1,-0.008788067655925547,-0.00831939315590641,0.0009036603161536273,0.03994244500017885
22.70106674600015,10.476560934833515,0.0,0.0,-0.042534922948744114,0.07196243830185801,-0.0,-0.02702291553793322,0.0029448296929954947,0.0,0.12393587082624435,-0.016664252553148337,-0.007148703332272557,-0.07166701185996682,-0.016664252553148337,0.0,0.0,0.0,0.09343831619482529,0.011667711887309792,-0.03321329184841874,0.02337715901056782,-0.02032261605981474,-0.0,0.008799013826447476,0.0,-0.02546326637959581,-1.6695819624577757,-1.7111152693398612,-0.04153330688208534,-0.04153330688208534,-0.05525315338992561,10.017477035522461,0.0,10.476952207195684,1,-7.825447243376972e-05,-0.005197615731240067,0.005212909161668486,10.260170936584473,1,0.07249231338500976,0.05,0.01610858048531371,-1.7111152693398612,1.5707963267948966,-1.6965861142394205,1,-0.008717493060264436,-0.008552087011286761,0.0008726459020578936,0.03997875900017789
22.80173006000018,10.482614278557277,0.0,0.0,-0.044537170516189904,0.1228159499318155,-0.0,-0.01637086018172996,-0.0213203993325635,0.0,0.1692013442516327,-0.11091965979166936,-0.038293004596220995,-0.11862530414860054,-0.11091965979166936,0.0,0.0,0.0,0.10079564552829516,0.017124021063973836,0.004870716715041599,-0.0013405399083254083,-0.019910305039040323,0.0,-0.015445116804405695,0.0,-0.09547454298726367,-1.6674875673553824,-1.711159499104079,-0.04367193174869666,-0.04367193174869666,-0.04200901180515776,10.017712593078613,0.0,10.476952207195684,1,0.001132414272318627,-0.005153406886456494,0.005300024610809394,10.260170936584473,1,0.07273750305175782,0.05,0.020721979859198717,-1.711159499104079,1.5707963267948966,-1.6965861142394205,1,-0.00874403091879512,-0.008901983304686823,0.000665817719785889,0.03964307399996869
22.901055800999984,10.486035021385455,0.0,0.0,-0.04018956584135428,0.14586969989222856,-0.0,-0.006671891598675738,-0.04456981722929686,0.0,0.18124625086784363,-0.1174788792333861,-0.06456317082909122,-0.13818840373560776,-0.1174788792333861,0.0,0.0,0.0,0.09225861967708032,0.020388394741769265,0.03321844038575399,-0.023899511016689613,-0.02064473501947805,-0.0,-0.021499666360021135,0.0,-0.09597921287336496,-1.666963968579784,-1.7113340222427247,-0.044370053662940556,-0.044370053662940556,-0.04424590591311962,10.020931243896484,0.0,10.476952207195684,1,0.0018165628379541944,-0.005087456367813297,0.0050170639053595065,10.260170936584473,1,0.0721853256225586,0.05,0.02322814797858314,-1.7113340222427247,1.5707963267948966,-1.6965861142394205,1,-0.0088487448019825,-0.00913739181133565,0.0004508309161471344,0.03965157399989039
23.00313617100005,10.490096786260718,0.0,0.0,-0.026940783679213987,0.038701769805539986,-0.0,-7.775805067581016e-05,-0.06271315694227889,0.0,0.18117910623550415,-0.013488153033206681,-0.06752865551587052,-0.02950674031415193,-0.013488153033206681,0.0,0.0,0.0,0.06339573545623706,0.024440931627445744,-0.04913489785452591,-0.04029041936532503,-0.022422537877860013,-0.0,-0.021233885365844567,0.0,0.007745732332637886,-1.6650441064025905,-1.7117617797773677,-0.04671767337477739,-0.04671767337477739,-0.05839476100588858,10.027311325073242,0.0,10.476952207195684,1,0.002628915813006927,-0.004944599221234213,0.004191143118211958,10.260170936584473,1,0.06985788345336914,0.05,0.025931413839060734,-1.7117617797773677,1.5707963267948966,-1.6965861142394205,1,-0.009105399322768281,-0.00949679175771649,0.00021060604557031012,0.040046073999974396
23.10102481900003,10.492680599056449,0.0,0.0,-0.02393359233206432,0.04611263492590436,-0.0,0.00026494170283927624,-0.06619534301099522,0.0,0.19649650156497955,-0.03236023288284499,-0.07202971868069476,-0.036330677986145844,-0.03236023288284499,0.0,0.0,0.0,0.05700396226038096,0.02670358475752127,-0.03759491878181419,-0.04226011041883531,-0.023935836918828182,-0.0,-0.030716015959964486,0.0,-0.0016442169228805036,-1.663996908851394,-1.7120974173086896,-0.04810050845729563,-0.04810050845729563,-0.07140483709042844,10.04024600982666,0.0,10.476952207195684,1,0.0031456783721530712,-0.004824660532448203,0.0036562817647676103,10.260170936584473,1,0.0673553466796875,0.05,0.027947794952017897,-1.7120974173086896,1.5707963267948966,-1.6965861142394205,1,-0.00930678184156144,-0.009743773234523793,0.00010635567945391482,0.0402750929999911
23.201753005,10.496122179880794,0.0,0.0,-0.02188019015487628,0.08264366035805613,-0.0,0.002319418489353671,-0.07487203617731067,0.0,0.20686961710453033,-0.06414435793690729,-0.08578916189996416,-0.0712461655053519,-0.06414435793690729,0.0,0.0,0.0,0.05306964429747958,0.02960489552982829,-3.1392011125454494e-05,-0.048311813749872416,-0.026565057481444488,-0.0,-0.0386010495032344,0.0,-0.025543308433672897,-1.6631242442253964,-1.712441386652066,-0.04931714242666985,-0.04931714242666985,-0.06607525924960729,10.050947189331055,0.0,10.476952207195684,1,0.0038339945370221788,-0.004608057115229076,0.003016438013094062,10.260170936584473,1,0.06276712417602538,0.05,0.02976741042311428,-1.712441386652066,1.5707963267948966,-1.6965861142394205,1,-0.009513163447587302,-0.010121489591187471,-5.843812722652359e-06,0.039994443999830764
23.301020892999986,10.498218157859275,0.0,0.0,-0.015966986668881692,0.014226309636098406,-0.0,-0.004163670957708616,-0.0626369299001631,0.0,0.203884094953537,-0.029641529069400336,-0.06401905868723831,-0.005228096975002447,-0.029641529069400336,0.0,0.0,0.0,0.04054947804598664,0.031370466745399186,-0.057695286497980384,-0.03476333257619984,-0.02786726469897152,-0.0,-0.038523928841192386,0.0,0.00888239977179205,-1.6631242442253964,-1.7126470119968291,-0.04952276777143272,-0.04952276777143272,-0.07299758325024487,10.069016456604004,0.0,10.476952207195684,1,0.004253190132718388,-0.004441469258784578,0.002652873387178422,10.260170936584473,1,0.05925550460815429,0.05,0.030422042276728727,-1.7126470119968291,1.5707963267948966,-1.6965861142394205,1,-0.00963653865444516,-0.01037776688734848,4.911977672146645e-05,0.04007192600010967
23.401721764000058,10.501668935630324,0.0,0.0,-0.013130582367187475,0.10306887882695358,-0.0,-0.026118315021318932,-0.014930770792190086,0.0,0.21824601292610168,-0.1088117227558533,-0.02936569230190076,-0.09991885615200086,-0.1088117227558533,0.0,0.0,0.0,0.03506547164531913,0.03342463958341927,0.03451380969640602,0.013223456815374778,-0.028121571018523476,0.0,-0.050256209603078625,0.0,-0.058555513152774664,-1.6655677051781888,-1.7127818789258873,-0.04721417374769832,-0.04721417374769832,-0.056539567683755156,10.083344459533691,0.0,10.476952207195684,1,0.004943345686928069,-0.00416023489763472,0.0020251575913915075,10.260170936584473,1,0.05304794311523437,0.05,0.03143772047240294,-1.7127818789258873,1.5707963267948966,-1.6965861142394205,1,-0.009717458811880063,-0.010766545433921918,0.0003763514132897658,0.03987646300015513
23.502565875000073,10.50438966016213,0.0,0.0,-0.014551654738068829,0.09071072525021677,-0.0,-0.0361762700866719,0.008192832333794356,0.0,0.21484877169132233,-0.1261976807837671,-0.004716604785711865,-0.09095774742354486,-0.1261976807837671,0.0,0.0,0.0,0.03946289971651048,0.034774894953439786,0.016348342426197243,0.03549392265789733,-0.027250975599778834,0.0,-0.05111970604025467,0.0,-0.07507797474351244,-1.666963968579784,-1.7126786626477495,-0.04571469406796558,-0.04571469406796558,-0.05990128744312776,10.106857299804688,0.0,10.476952207195684,1,0.005487490593289124,-0.003947017158947142,0.001845553516912133,10.260170936584473,1,0.04845342636108398,0.05,0.031195835263147238,-1.7126786626477495,1.5707963267948966,-1.6965861142394205,1,-0.009655529044997379,-0.011024317170879375,0.0006371773373400029,0.040010073999837914
23.601679096999987,10.50802989284029,0.0,0.0,-0.0015966413779914413,0.0854721863256084,-0.0,-0.06213411997596238,0.07066880738498524,0.0,0.1984843909740448,-0.05458843545291682,0.05790634927310871,-0.09458556806593914,-0.05458843545291682,0.0,0.0,0.0,0.011266552306211776,0.035648988701026854,0.03818924544374457,0.09363209004782605,-0.022953841701219044,0.0,-0.046022785305808965,-0.0,-0.008565650147107855,-1.676912345316152,-1.7123192477522506,-0.03540690243609834,-0.03540690243609834,-0.03913064817830244,10.122358322143555,0.0,10.476952207195684,1,0.006215537128921156,-0.0035897846517038627,0.0008987662839784351,10.260170936584473,1,0.04134378433227539,0.05,0.03043596446542114,-1.7123192477522506,1.5707963267948966,-1.6965861142394205,1,-0.009439880107698072,-0.011404753350152433,0.0012705544127181413,0.03999986999997418
23.701027634000184,10.509354959605322,0.0,0.0,-0.002278564235159923,0.038537201887992735,-0.0,-0.06888574007314247,0.08981587306957474,0.0,0.19794921576976776,-0.05015436263189256,0.08350147374696829,-0.05078888526725348,-0.05015436263189256,0.0,0.0,0.0,0.013295623076035799,0.036168712957914836,-0.01137865997258225,0.1091027190543581,-0.019271910664371547,0.0,-0.04867908829137421,-0.0,-0.0014752743405183483,-1.683893662324129,-1.7119401584851583,-0.02804649616102939,-0.02804649616102939,-0.029958004170751944,10.145150184631348,0.0,10.476952207195684,1,0.006480550481927594,-0.0033312053428085457,0.0006155556602827555,10.260170936584473,1,0.03660736083984375,0.05,0.030210041110966993,-1.7119401584851583,1.5707963267948966,-1.6965861142394205,1,-0.009212426547442698,-0.01165308795345135,0.0015719194524598118,0.0397044440001082
23.80158791200006,10.50838143390527,0.0,0.0,0.021197548221404523,-0.024241899441760365,-0.0,-0.07549747520893385,0.11240876943231143,0.0,0.16461464762687683,0.007838971586675104,0.11469612200485618,0.00825837337967458,0.007838971586675104,0.0,0.0,0.0,-0.041728083808506795,0.034552572357360097,-0.017608799664454604,0.12455408474307965,-0.012297609113710332,-0.0,-0.03425587107599684,-0.0,0.042094842662671945,-1.6940165719856963,-1.71132358592007,-0.017307013934373394,-0.017307013934373394,0.013514761607690256,10.160136222839355,0.0,10.476952207195684,1,0.006285845341917451,-0.0029449114975968835,-0.001110696444964585,10.260170936584473,1,0.030010414123535153,0.05,0.027511115043346947,-1.71132358592007,1.5707963267948966,-1.6965861142394205,1,-0.008842483008389657,-0.012012116231459258,0.001972617095951259,0.03961014800006524
23.901052930000105,10.506729011811975,0.0,0.0,0.02455950184288838,-0.06626816817567237,-0.0,-0.0711643147081481,0.10773880816230447,0.0,0.1618451178073883,-0.02972402864774509,0.1159360855457007,0.05057613039698678,-0.02972402864774509,0.0,0.0,0.0,-0.05100297832670599,0.03293248101824308,-0.048679681936704716,0.11529010870046172,-0.007717647278066286,-0.0,-0.035954942841293004,-0.0,0.0062309141935479135,-1.6976817634148846,-1.710877932790305,-0.01319616937542012,-0.01319616937542012,-0.04130516187723145,10.180584907531738,0.0,10.476952207195684,1,0.005955360923258369,-0.0027051398028230173,-0.0018738912442315104,10.260170936584473,1,0.025936031341552732,0.05,0.025984181730347233,-1.710877932790305,1.5707963267948966,-1.6965861142394205,1,-0.008575091130530677,-0.01224144506152698,0.002056816347755784,0.0401484999999866
24.003698800000166,10.5026341253205,0.0,0.0,0.0418350890198323,-0.06317806807298783,-0.0,-0.07560440008500828,0.124669039937623,0.0,0.12394149601459503,0.01001872696302978,0.13224090400881736,0.04523473346151684,0.01001872696302978,0.0,0.0,0.0,-0.09411192948029937,0.028263537523993663,0.0021260770549499943,0.12527070880544786,-0.0009028234896184362,0.0,-0.019272370519519112,-0.0,0.029291097482548892,-1.7130406608324344,-1.7102556516480534,0.002785009184381071,0.002785009184381071,0.04213140489555295,10.193367958068848,0.0,10.476952207195684,1,0.005136383624963159,-0.002377949750298659,-0.003701494618604636,10.260170936584473,1,0.020040893554687498,0.05,0.021779984927375682,-1.7102556516480534,1.5707963267948966,-1.6965861142394205,1,-0.008201722445179716,-0.012574171338701659,0.0021127249740766647,0.04007683300005738
24.10109865200002,10.499723189318605,0.0,0.0,0.043459554680085714,-0.10369226148903075,-0.0,-0.0582450972062948,0.08953948350091848,0.0,0.09314873814582825,0.08812312596077264,0.10305628764180927,0.09027073598796818,0.08812312596077264,0.0,0.0,0.0,-0.1000204034472488,0.024774348786045473,-0.028769309759914426,0.08665927257682021,0.0026391278077872544,-0.0,-0.004679022653219869,-0.0,0.09280214861399251,-1.7214182412420072,-1.709946443681159,0.011471797560848263,0.011471797560848263,0.027965671480868582,10.208657264709473,0.0,10.476952207195684,1,0.004554196424584234,-0.0021907901581786674,-0.004367671335069307,10.260170936584473,1,0.016712379455566407,0.05,0.018637987601562055,-1.709946443681159,1.5707963267948966,-1.6965861142394205,1,-0.008016197665043023,-0.012788782440632779,0.0019504613433901819,0.040018389000124444
24.201611504000084,10.494833748493653,0.0,0.0,0.04301957056016792,-0.06085288425067592,-0.0,-0.040954346920868176,0.053763027494516176,0.0,0.05527577921748161,0.09215151240052429,0.0616657230276626,0.0528287350830764,0.09215151240052429,0.0,0.0,0.0,-0.10213432602148363,0.01895081177012146,0.02217081245884519,0.0475000891292189,0.006095061630960182,-0.0,0.012458343541975414,-0.0,0.07969316885854887,-1.733461013080768,-1.7096050892286536,0.023855923852114103,0.023855923852114103,0.04708079642460827,10.216813087463379,0.0,10.476952207195684,1,0.00357630825959383,-0.0019552286978711097,-0.005026202647683721,10.260170936584473,1,0.013007354736328124,0.05,0.013032330384445845,-1.7096050892286536,1.5707963267948966,-1.6965861142394205,1,-0.00781138499353986,-0.013103647363617452,0.001551635040479541,0.040032556000141994
24.301064558999997,10.492393432883352,0.0,0.0,0.042827461963093616,-0.10622014896339284,-0.0,-0.02763099410119657,0.024660691370549027,0.0,0.023237399756908417,0.15107652930536086,0.03910246276343807,0.10179325690099898,0.15107652930536086,0.0,0.0,0.0,-0.10253061698944996,0.01530259203687911,-0.019064888327172125,0.01730930133707952,0.007238606867603581,-0.0,0.028086179418215187,-0.0,0.12299034988714566,-1.7388715337619505,-1.7094281086862557,0.02944342507569475,0.02944342507569475,0.08214090461583591,10.226993560791016,0.0,10.476952207195684,1,0.0030882451375337187,-0.0018288580737131086,-0.005036751005022423,10.260170936584473,1,0.010813522338867187,0.05,0.009234176448399868,-1.7094281086862557,1.5707963267948966,-1.6965861142394205,1,-0.007705196668101121,-0.01330998589877343,0.0012520527098050355,0.039920592999806104
24.401521559000003,10.489340502649979,0.0,0.0,0.032823265208360236,-0.052491888119910166,-0.0,-0.010951649749714248,-0.013888611912851822,0.0,0.010608471930027008,0.06862460673669082,-0.0065092195886170415,0.05390660367344747,0.06862460673669082,0.0,0.0,0.0,-0.08040371920628192,0.010509664238349268,0.017390732513117426,-0.020950685548423897,0.007027803711346321,-0.0,0.03132049817120259,-0.0,0.03730410856548823,-1.7416640605651412,-1.7092868997622144,0.03237716080292685,0.03237716080292685,0.03806305742903986,10.233281135559082,0.0,10.476952207195684,1,0.0024776590908590634,-0.0016651542822914566,-0.0045363846939718774,10.260170936584473,1,0.008066940307617187,0.05,0.004742361907747466,-1.7092868997622144,1.5707963267948966,-1.6965861142394205,1,-0.007620471313676313,-0.013616806033319263,0.0007625887116341037,0.03948918500009313
24.503658263000034,10.48744503445614,0.0,0.0,0.027818114742413996,-0.00886727647225718,-0.0,-0.008257265942525219,-0.021968374728902028,0.0,0.0008162732119672,0.0276934035975671,-0.02053301965850345,0.01181664859291407,0.0276934035975671,0.0,0.0,0.0,-0.06908826089724757,0.0077355364099162115,0.05247894667555615,-0.027995009504475917,0.006004732246340781,0.0,0.034001768949661774,-0.0,-0.006308365352094677,-1.7407913959391446,-1.70936361088082,0.031427785058324886,0.031427785058324886,0.03577406580553827,10.248324394226074,0.0,10.476952207195684,1,0.00209856545209135,-0.0015784384837532397,-0.004105767179218459,10.260170936584473,1,0.005199909210205078,0.05,0.0022859789178650836,-1.70936361088082,1.5707963267948966,-1.6965861142394205,1,-0.007666497984839626,-0.013819247170042615,0.0005034748921406956,0.03999672199984161
24.60151335600017,10.485153442607187,0.0,0.0,0.023957595250113296,-0.059388620457483554,-0.0,-0.0043881089425453655,-0.03440118927563811,0.0,-0.02474566176533699,0.07454486940425803,-0.025855676292042773,0.0635762067671736,0.07454486940425803,0.0,0.0,0.0,-0.059609492132129925,0.004502783801136827,-0.004283748580310333,-0.038056213981175153,0.003644998286893355,-0.0,0.044312245157021826,-0.0,0.030232624247236203,-1.7379988691359536,-1.7095643902063198,0.028434478929633578,0.028434478929633578,0.02114755057233755,10.259922981262207,0.0,10.476952207195684,1,0.0016402470823006611,-0.0014709455428882413,-0.0033069299857218155,10.260170936584473,1,7.43865966796875e-05,0.05,-0.0009663064336469686,-1.7095643902063198,1.5707963267948966,-1.6965861142394205,1,-0.0077869655801395595,-0.01412940627864867,0.00022998383389052435,0.03979335200006062
24.70106544800001,10.483764823595157,0.0,0.0,0.017743144231848335,-0.054937087048069475,-0.0,-0.008890174281972458,-0.02657566565893303,0.0,-0.0275338813662529,0.048865789440169616,-0.018718648564621458,0.058085813538735515,0.048865789440169616,0.0,0.0,0.0,-0.0451676306369691,0.002842168200872219,-0.012619163430335435,-0.028772752335948285,0.0021820405893563342,0.0,0.04328528921248505,0.0,0.005580500227684565,-1.7367771386595572,-1.7096070805669732,0.027170058092583993,0.027170058092583993,0.028900726416774086,10.275045394897461,0.0,10.476952207195684,1,0.0013625232798947452,-0.001413770546548738,-0.0027363497001199923,10.260170936584473,1,-0.002858448028564453,0.049943858521123125,-0.002477143171336486,-1.7096070805669732,1.5707963267948966,-1.6965861142394205,1,-0.007812579796531605,-0.014337530753944032,0.0001814124794357798,0.04000944399990658
24.80152170700012,10.48194249705025,0.0,0.0,0.02096845652953813,-0.077727253635003,-0.0,-0.01224045529313842,-0.02146589540864858,0.0,-0.042105402797460556,0.07340658525916384,-0.010496378648239794,0.0799508390112818,0.07340658525916384,0.0,0.0,0.0,-0.052359240786785395,0.00020956299399901336,-0.025591869828834598,-0.022100691941297962,0.00061031028357979,0.0,0.04764630516023595,0.0,0.025760280098927887,-1.7315411509035745,-1.7097106279028669,0.021830523000707647,0.021830523000707647,0.02766516772498902,10.286917686462402,0.0,10.476952207195684,1,0.0009980579709132798,-0.001347046227486985,-0.0024822101169724334,10.260170936584473,1,-0.008024024963378906,0.04969227897408496,-0.004363148207773359,-1.7097106279028669,1.5707963267948966,-1.6965861142394205,1,-0.007874708198067815,-0.014650798068438848,0.00023928190914189712,0.039998852000053375
24.90106179999998,10.480412136863272,0.0,0.0,0.02200649095058237,-0.08674916988144822,-0.0,-0.014985862438265057,-0.01624751490984322,0.0,-0.040542397648096085,0.04693011334598679,-0.004073879524383258,0.08816350561023961,0.04693011334598679,0.0,0.0,0.0,-0.0552510580297278,-0.0016778210819405337,-0.02984171894169583,-0.0163724140938336,9.343226820236831e-05,-0.0,0.04426377223351379,0.0,0.0026663411124729975,-1.729272222875982,-1.7097689449399824,0.01950327793599982,0.01950327793599982,0.02538213706445118,10.301438331604004,0.0,10.476952207195684,1,0.0006919859335177136,-0.001315574478184195,-0.0024840377909910566,10.260170936584473,1,-0.011085891723632812,0.04941852558398896,-0.005102077785929246,-1.7097689449399824,1.5707963267948966,-1.6965861142394205,1,-0.007909698420337152,-0.014861882453041065,0.0003437120288251622,0.040354703000048175
25.003531763000183,10.476511915866762,0.0,0.0,0.02588530807414542,-0.07200569759057461,-0.0,-0.02845287869638308,0.013592588737870934,0.0,-0.04417695850133896,0.023103644631233863,0.023434663791447652,0.06942906802690059,0.023103644631233863,0.0,0.0,0.0,-0.06603725705367845,-0.0049252133903676075,-0.0011205015592923077,0.013126458376952713,0.0003958291445814446,0.0,0.04295214405925067,0.0,-0.019848499428016808,-1.7256070314467937,-1.709747094311063,0.01585993713573064,0.01585993713573064,0.023008995040109084,10.31141471862793,0.0,10.476952207195684,1,-8.805826578424104e-05,-0.0013019097646513457,-0.0027416589198182894,10.260170936584473,1,-0.015373134613037109,0.048869244493528925,-0.006086161616412991,-1.709747094311063,1.5707963267948966,-1.6965861142394205,1,-0.007896588042985542,-0.015177136779488934,0.0005874181156153533,0.0401211289999992
25.101090503000023,10.47310704684773,0.0,0.0,0.028028537831835013,-0.057679611869734033,-0.0,-0.031210811323890798,0.020537397755490003,0.0,-0.041845180094242096,0.00733319906691314,0.028326715795691546,0.05428001017170583,0.00733319906691314,0.0,0.0,0.0,-0.07307971974539364,-0.007639438032704225,0.02294653485260567,0.019163427957016775,0.0012904422070869417,-0.0,0.03931687219452705,0.0,-0.03198367312761391,-1.7205455766160103,-1.7097176024826621,0.010827974133348128,0.010827974133348128,0.0063594098872839615,10.325714111328125,0.0,10.476952207195684,1,-0.0007690320695907361,-0.0013253382426093563,-0.0030951462856892696,10.260170936584473,1,-0.01835031509399414,0.048403220677888326,-0.006369965353924526,-1.7097176024826621,1.5707963267948966,-1.6965861142394205,1,-0.00787889294594497,-0.01538771207629458,0.0007664427697200122,0.039845278000029793
25.201490189000197,10.46838606315789,0.0,0.0,0.0353209542031651,-0.13021088340699755,-0.0,-0.046399365834495554,0.05657821462742199,0.0,-0.05899013206362724,0.07989586470506757,0.07403810328427193,0.1211376398570024,0.07989586470506757,0.0,0.0,0.0,-0.09275035639935926,-0.012433635396086589,-0.02523254902013928,0.05281565526755323,0.003606005153154513,0.0,0.04600892525003823,0.0,0.03388693945502934,-1.7097245352536454,-1.7095032187850407,0.00022131646860490406,0.00022131646860490406,-0.038808388395206055,10.33509635925293,0.0,10.476952207195684,1,-0.0017132288075586645,-0.0014093197656701083,-0.0037157501324057915,10.260170936584473,1,-0.02247762680053711,0.04756593410588002,-0.007396897285573087,-1.7095032187850407,1.5707963267948966,-1.6965861142394205,1,-0.007750262727372136,-0.01569948811567095,0.001057501039253543,0.039876628999991226
25.30108700300002,10.465522336317541,0.0,0.0,0.03721307846470323,-0.10032189727150595,-0.0,-0.050479316193850286,0.06835206676826412,0.0,-0.06500817090272903,0.060603581335079586,0.08154238270387545,0.08992957203624702,0.060603581335079586,0.0,0.0,0.0,-0.09923409090838328,-0.016073264547590352,0.014741976657075962,0.06216188654305459,0.00601068696209284,-0.0,0.047090086609742454,0.0,0.013513494725337133,-1.7001252243676763,-1.7092367015981624,-0.00911147723048611,-0.00911147723048611,-0.052767341719397357,10.345748901367188,0.0,10.476952207195684,1,-0.002285974175628525,-0.001494944664626011,-0.004112407653398272,10.260170936584473,1,-0.025026798248291016,0.04691731404398512,-0.008415209015519046,-1.7092367015981624,1.5707963267948966,-1.6965861142394205,1,-0.007590352415245149,-0.015902922320032317,0.0012693615155428984,0.03998351800009914
25.40148900300005,10.462294644394309,0.0,0.0,0.036744226232529584,-0.16858623011372265,-0.0,-0.06753275584626424,0.11144900687187953,0.0,-0.07316114008426666,0.11268865160685076,0.13357964883452675,0.1516531421828437,0.11268865160685076,0.0,0.0,0.0,-0.1002944929770737,-0.021462973847259207,-0.04726467847503544,0.10037039680937636,0.010841430844820673,0.0,0.04989476811141002,0.0,0.06279388349544075,-1.6844172610997272,-1.7087900564006302,-0.024372795300902972,-0.024372795300902972,-0.07592658506622375,10.348939895629883,0.0,10.476952207195684,1,-0.002931512560274996,-0.0016599340587402272,-0.004252733047125055,10.260170936584473,1,-0.026630687713623046,0.0458709135419069,-0.00924341906020048,-1.7087900564006302,1.5707963267948966,-1.6965861142394205,1,-0.007322365296725808,-0.016199431405285576,0.0016119484963727602,0.03983279599992784
25.502907022000045,10.460581379144422,0.0,0.0,0.030169886147362854,-0.1488882660615586,-0.0,-0.07059104620051021,0.12262833619205897,0.0,-0.0794481486082077,0.12575919882525216,0.14189167980191866,0.13066053654810963,0.12575919882525216,0.0,0.0,0.0,-0.0860701124176143,-0.02450335275568268,-0.0387911698034366,0.10765045229326967,0.014774288730442477,-0.0,0.05275360072369337,0.0,0.0730055981015588,-1.6739452855877615,-1.7083962015199925,-0.03445091593223104,-0.03445091593223104,-0.09309607441469464,10.35074234008789,0.0,10.476952207195684,1,-0.0032741656102523112,-0.0017872963893040003,-0.003891430224723695,10.260170936584473,1,-0.02683095932006836,0.045157495619286205,-0.009852017034603264,-1.7083962015199925,1.5707963267948966,-1.6965861142394205,1,-0.007086052368343187,-0.01639008288216903,0.0018171128196700329,0.039898870000115494
25.602032207000093,10.458164969441826,0.0,0.0,0.020056941508290953,-0.09414284249966702,-0.0,-0.07849704680008238,0.14742833111882847,0.0,-0.07678481191396713,0.06747807489113689,0.15888811047823917,0.07316116428170683,0.06747807489113689,0.0,0.0,0.0,-0.06336528814973245,-0.028043092437017275,-0.0033236461889675018,0.12602703467121668,0.021250752764198563,0.0,0.04994668416979071,0.0,0.017531390721346185,-1.659633585721408,-1.707576162724672,-0.047942577003263764,-0.047942577003263764,-0.08933753311902495,10.350211143493652,0.0,10.476952207195684,1,-0.003757447550771431,-0.002002935668470505,-0.002985078976890955,10.260170936584473,1,-0.027012062072753907,0.04407338373769447,-0.010601659962589853,-1.707576162724672,1.5707963267948966,-1.6965861142394205,1,-0.006594029091150855,-0.016660361489061505,0.002042359539773916,0.040086704000032114
25.701057725000055,10.456880473096575,0.0,0.0,0.017824086317830994,-0.11233494936354825,-0.0,-0.08573941520787642,0.16879695928902666,0.0,-0.07177932560443878,0.032001034331302775,0.18248744557890656,0.08837356233522496,0.032001034331302775,0.0,0.0,0.0,-0.058355139398385165,-0.030089952819023602,-0.024592862917229813,0.14265072072382193,0.02600009299708456,0.0,0.046552654852571165,0.0,-0.014551620521268387,-1.6521286699378324,-1.7070069201740226,-0.05487825023619042,-0.05487825023619042,-0.13161676485967969,10.347667694091797,0.0,10.476952207195684,1,-0.004014346819821668,-0.0021605445675489787,-0.0025260856577007038,10.260170936584473,1,-0.026725673675537107,0.043353689141834316,-0.010819582983117375,-1.7070069201740226,1.5707963267948966,-1.6965861142394205,1,-0.0062524835607612236,-0.01682971562722348,0.002184020672754602,0.039927185999886206
25.801965096000004,10.45569781688153,0.0,0.0,0.000906755650624114,-0.02291780562830793,-0.0,-0.08163773692460487,0.16713234513780223,0.0,-0.04517115652561188,-0.026407840993237147,0.16869625363269516,0.00014358402323775415,-0.026407840993237147,0.0,0.0,0.0,-0.019154282706456787,-0.031448434310148356,0.027047486683902035,0.134243483099194,0.032881782120982715,0.0,0.031726592849576345,0.0,-0.05813443384281349,-1.645845484630653,-1.7062190142231584,-0.06037352959250519,-0.06037352959250519,-0.10146882821880805,10.345587730407715,0.0,10.476952207195684,1,-0.004250878062830666,-0.0024122468672308356,-0.0011366115586129242,10.260170936584473,1,-0.025625038146972656,0.042317032595491744,-0.008985496224837053,-1.7062190142231584,1.5707963267948966,-1.6965861142394205,1,-0.0057797399902427046,-0.017067284830816935,0.00222905294154296,0.039892258999998376
25.901132910000115,10.45614049030317,0.0,0.0,0.0002550071707297513,0.006833527198498846,-0.0,-0.07712741755781657,0.16213469847121922,0.0,-0.04860476776957512,-0.006675455779373826,0.15974257884593693,-0.028577369472633937,-0.006675455779373826,0.0,0.0,0.0,-0.017000590327724482,-0.03229906956092894,0.05556427367740472,0.1246790455823909,0.037453771884593964,0.0,0.0339562767795465,0.0,-0.040631732558920323,-1.6449728200046556,-1.7056977847756367,-0.06072496477098088,-0.06072496477098088,-0.10942955488113365,10.344019889831543,0.0,10.476952207195684,1,-0.004162343378502698,-0.0025800660670055892,-0.0007301244418185443,10.260170936584473,1,-0.025141525268554687,0.041643044756010196,-0.008512492624453126,-1.7056977847756367,1.5707963267948966,-1.6965861142394205,1,-0.005467002321729719,-0.017215062998935073,0.0022269412093895327,0.03996259200016539
26.004382207000162,10.458289948264829,0.0,0.0,-0.013208254111446239,0.052533593938425854,-0.0,-0.06704426060781189,0.14614208265243894,0.0,-0.02384071983397007,-0.05193387195129519,0.13779563060737604,-0.07162158194004985,-0.05193387195129519,0.0,0.0,0.0,0.016041216857765772,-0.031634820172449646,0.0676974010911479,0.10263038435776443,0.04359637156680625,-0.0,0.019867653354657056,0.0,-0.07180152530595224,-1.6496852089850405,-1.705046268626303,-0.05536105964126259,-0.05536105964126259,-0.06558307075107384,10.34428596496582,0.0,10.476952207195684,1,-0.0037324517861708987,-0.002812925770845715,0.0006285856536457254,10.260170936584473,1,-0.025234508514404296,0.040634757603587,-0.006128213332057677,-1.705046268626303,1.5707963267948966,-1.6965861142394205,1,-0.005076092632129514,-0.017423467527929313,0.002105474260321673,0.04007051799999317
26.10108531800006,10.45990498617575,0.0,0.0,-0.025420253372755438,0.09360626569636357,-0.0,-0.05770250284813933,0.12829351238348438,0.0,-0.02446962706744671,-0.061602003129849675,0.1146447444341218,-0.10989968549065264,-0.061602003129849675,0.0,0.0,0.0,0.04535694301883692,-0.030434360706553733,0.07836536511643455,0.08175511128195677,0.04667863299126089,-0.0,0.01994983954790724,0.0,-0.08155184267775692,-1.6568410589182172,-1.7047320495493083,-0.047890990631091146,-0.047890990631091146,-0.04684098987061167,10.34691333770752,0.0,10.476952207195684,1,-0.003409444203986567,-0.0029527368795943944,0.00155871999211503,10.260170936584473,1,-0.025499725341796873,0.039957838256119094,-0.0056780074019235245,-1.7047320495493083,1.5707963267948966,-1.6965861142394205,1,-0.004887561185932698,-0.01755491917326309,0.0019013917301277132,0.03987096300011217
26.201857668999992,10.463270344844775,0.0,0.0,-0.025615607677079093,0.13441235586945946,-0.0,-0.02731511640014724,0.06311250080707648,0.0,-0.006367439404129982,-0.10191383392458468,0.04464621789959681,-0.14162127098625815,-0.10191383392458468,0.0,0.0,0.0,0.048167550370913116,-0.028518659971703254,0.1146921574031383,0.0138698260753227,0.049309546109659506,-0.0,0.008812710852492212,0.0,-0.1107265447770769,-1.6723744892609664,-1.7043946036181212,-0.032020114357155016,-0.032020114357155016,-0.030710289971893207,10.349869728088379,0.0,10.476952207195684,1,-0.002736372470181792,-0.0031307844907989125,0.0021458903615893888,10.260170936584473,1,-0.026909637451171874,0.03889810414281882,-0.0036680546749565768,-1.7043946036181212,1.5707963267948966,-1.6965861142394205,1,-0.004685093627220427,-0.017745021661254804,0.0014194652862019473,0.040046888999995645
26.30114329900016,10.465749704317542,0.0,0.0,-0.024728809189079336,0.00010132183561109853,-0.0,-0.024286060987291976,0.056285396620204486,0.0,0.005381761118769646,-0.054038033693278885,0.055771024974696784,-0.0075926880668077444,-0.054038033693278885,0.0,0.0,0.0,0.04811936090882955,-0.026683282375243977,-0.0213911131726602,0.006400777071741215,0.04994200343256871,-0.0,0.0019290092600285464,0.0,-0.055967042953307435,-1.6793558062689438,-1.7043047029849856,-0.024948896716042057,-0.024948896716042057,-0.09336140839009098,10.353827476501465,0.0,10.476952207195684,1,-0.002240500575628346,-0.003225735331724168,0.002609863495013883,10.260170936584473,1,-0.02783174514770508,0.038164164526643035,-0.0017356428267874002,-1.7043047029849856,1.5707963267948966,-1.6965861142394205,1,-0.004631153247339048,-0.017868461599685914,0.001122997983251719,0.04014712899993356
26.401544262000016,10.46871245595288,0.0,0.0,-0.030977761122326204,0.07383384452359132,-0.0,0.01994332917848042,-0.04640216376556976,0.0,0.020884539932012558,-0.11261427967938209,-0.05583161208683231,-0.06698827129465346,-0.11261427967938209,0.0,0.0,0.0,0.06359212663430724,-0.02407947948846891,0.03428320451278561,-0.093427362801238,0.04696618512255579,-0.0,-0.007228396256973956,0.0,-0.10538588342240814,-1.7158331876356254,-1.7045167059234012,0.011316481712224213,0.011316481712224213,0.017438267431792134,10.354379653930664,0.0,10.476952207195684,1,-0.001647950248560548,-0.003334793214171789,0.0029104944469094244,10.260170936584473,1,-0.028262615203857422,0.03703823632600822,6.159171490516392e-05,-1.7045167059234012,1.5707963267948966,-1.6965861142394205,1,-0.0047583550103884155,-0.01805590469486825,0.0002906057922652734,0.0400091850001445
26.502860132000023,10.470257092786225,0.0,0.0,-0.020429719606954996,0.055827664710283165,-0.0,0.03655675400856922,-0.088741848774932,0.0,0.001957943430170417,-0.01667580832889549,-0.09540904685876561,-0.043462140404017933,-0.01667580832889549,0.0,0.0,0.0,0.04038611499175232,-0.022655186067844685,0.03796909839869726,-0.13191203519010325,0.04309885633917434,-0.0,0.0036027230997849207,0.0,-0.020278531428680413,-1.7264796960727906,-1.7048927602761916,0.021586935796598983,0.021586935796598983,0.04974120301173435,10.3539457321167,0.0,10.476952207195684,1,-0.0013390228818916938,-0.0033913223284520264,0.0026579505996397776,10.260170936584473,1,-0.02825374603271484,0.03628242439534787,-6.619643282107952e-05,-1.7048927602761916,1.5707963267948966,-1.6965861142394205,1,-0.004983987622062668,-0.01818708811386514,-0.0002321862510044517,0.03999422199990477
26.601486947000012,10.472968380601449,0.0,0.0,-0.027886333879774263,0.04402064111079176,-0.0,0.0655573302616109,-0.16591802721327942,0.0,0.006229277700185776,0.005535794260042621,-0.1703349654168215,-0.021274589410888382,0.005535794260042621,0.0,0.0,0.0,0.05856030301327939,-0.01974450709706901,0.0047944779142799765,-0.19951011264142943,0.033417526169160154,-0.0,0.0009728075077578917,0.0,0.00456298675228473,-1.7662732030182613,-1.705881826913181,0.060391376105080496,0.060391376105080496,0.11684652923759344,10.353293418884277,0.0,10.476952207195684,1,-0.0007967653188469371,-0.003451303741375018,0.002980054731938323,10.260170936584473,1,-0.027936744689941406,0.03516304618230003,0.0006243220540903025,-1.705881826913181,1.5707963267948966,-1.6965861142394205,1,-0.0055774276042563015,-0.018401553130295106,-0.0011501038408510648,0.03996490700001232
26.701077132000137,10.474572433129989,0.0,0.0,-0.034753018679392816,0.13772967247039755,-0.0,0.08307353748314938,-0.2151767677933387,0.0,0.014706924557685852,-0.05060879065571288,-0.23185314541083804,-0.10730621156248214,-0.05060879065571288,0.0,0.0,0.0,0.07510480892029008,-0.01740487423339875,0.07937088390913362,-0.24063971746432083,0.025187324463524147,-0.0,-0.00410220838546365,0.0,-0.04650658227024923,-1.78215569921141,-1.7067005199601326,0.07545517925127765,0.07545517925127765,0.14653403315507502,10.351447105407715,0.0,10.476952207195684,1,-0.00047595481313891244,-0.0034728056621932133,0.003334291305162069,10.260170936584473,1,-0.027553653717041014,0.03442626565632888,0.0009972986426252375,-1.7067005199601326,1.5707963267948966,-1.6965861142394205,1,-0.006068643432427257,-0.018560150813034706,-0.0016793580278981065,0.039966740999943795
26.80151744700015,10.477524212711788,0.0,0.0,-0.03460622966901265,0.054630568993252124,-0.0,0.09404656425568539,-0.2570349307402793,0.0,0.0045905765146017075,0.01257080327799969,-0.2620910196182416,-0.018967132747390952,0.01257080327799969,0.0,0.0,0.0,0.07713778933427694,-0.013329581712315094,-0.01002180334441307,-0.2683716629795215,0.011026105707998803,0.0,0.0015126104827263025,0.0,0.011058192795273387,-1.79751459662896,-1.707978794363202,0.08953580226575797,0.08953580226575797,0.17876693892011444,10.350725173950195,0.0,10.476952207195684,1,0.00011440110322098463,-0.003481188731706556,0.003823189475053339,10.260170936584473,1,-0.027166271209716795,0.033336132333535516,0.0009417328619934903,-1.707978794363202,1.5707963267948966,-1.6965861142394205,1,-0.00683560807426895,-0.01882310638243507,-0.0022818408237567102,0.03983764899999187
26.901072891000013,10.480524004377203,0.0,0.0,-0.043429634777927995,0.09843269317368486,-0.0,0.09470095769884596,-0.2703496367826682,0.0,0.011903217993676662,0.008447427165848289,-0.2813225085155403,-0.06029566648167328,0.008447427165848289,0.0,0.0,0.0,0.09926995152773525,-0.009845387955799954,0.008152421300777873,-0.27184093165705253,0.001098869075420162,0.0,-0.0028806978450444704,0.0,0.011328125010892759,-1.8006561892825497,-1.7088364620603904,0.09181972722215903,0.09181972722215903,0.164662051871502,10.349575996398926,0.0,10.476952207195684,1,0.0007143594363039796,-0.0034596722210932366,0.004438383246740916,10.260170936584473,1,-0.027088737487792967,0.03261428124564305,0.0015765111607524626,-1.7088364620603904,1.5707963267948966,-1.6965861142394205,1,-0.007350208692581938,-0.019015292417955784,-0.002497601034731107,0.04003979599997365
27.003688354000133,10.484935573064003,0.0,0.0,-0.0450850026614059,0.12213630505644557,-0.0,0.07413415236345224,-0.24063345203745892,0.0,0.003920447546988726,0.008696215146461723,-0.2552522790163074,-0.08756717027109154,0.008696215146461723,0.0,0.0,0.0,0.10641235812470407,-0.004050985380724486,0.019250763851119734,-0.22856855018008634,-0.012383677154875948,0.0,0.0012921873572731277,0.0,0.007404027789188596,-1.7985617941801568,-1.7099949213248213,0.08856687285533571,0.08856687285533571,0.10274859431487099,10.349003791809082,0.0,10.476952207195684,1,0.0015966731736639873,-0.003380445787738943,0.005068023645716354,10.260170936584473,1,-0.02664985656738281,0.031544304113440495,0.001179645596386254,-1.7099949213248213,1.5707963267948966,-1.6965861142394205,1,-0.008045284251240492,-0.019328078739772315,-0.002387280181937836,0.03999411099994177
27.10114472400005,10.48795024798253,0.0,0.0,-0.05357695809888183,0.13381743054698453,-0.0,0.06683818873963303,-0.2333375766891909,0.0,0.016831889748573303,-0.03150659998838804,-0.24971207604050752,-0.09998704162500688,-0.03150659998838804,0.0,0.0,0.0,0.12794504362814993,0.0005011688133574163,0.004945268003849451,-0.21338485143069547,-0.020294163456888618,0.0,-0.006325948085493524,0.0,-0.025180651902894518,-1.7893115491445868,-1.7106380153191945,0.0786735338253921,0.0786735338253921,0.0937422856172722,10.346732139587402,0.0,10.476952207195684,1,0.002199608157369326,-0.0032989361408503914,0.005679207897394653,10.260170936584473,1,-0.026235580444335938,0.03084172558741686,0.0016824977963365098,-1.7106380153191945,1.5707963267948966,-1.6965861142394205,1,-0.008431140647864365,-0.019550427543695886,-0.002173357355486468,0.04026333400020121
27.201600058000167,10.49224810969611,0.0,0.0,-0.04785507972259965,0.10727638968969197,-0.0,0.03422965836363584,-0.17093749787130857,0.0,0.01257756445556879,-0.00610510799869813,-0.18427021382641826,-0.08229422980819716,-0.00610510799869813,0.0,0.0,0.0,0.11793346506065387,0.007070461425295206,-0.017839206812009834,-0.14183973899100452,-0.029253880143616108,0.0,-0.0038224998805824837,0.0,-0.0022826081181156464,-1.7695893285970505,-1.711227346334373,0.058361982262677525,0.058361982262677525,0.05942410337809097,10.344534873962402,0.0,10.476952207195684,1,0.0030591805000852903,-0.003128860029351597,0.005820720288782045,10.260170936584473,1,-0.025309181213378905,0.02981560382388917,0.0017003087107543835,-1.711227346334373,1.5707963267948966,-1.6965861142394205,1,-0.008784739256971496,-0.019898286113871868,-0.0015599248977955723,0.039897314999961964
27.301134558000058,10.494578495803463,0.0,0.0,-0.0459251897915785,0.12578340152159356,-0.0,0.00818909452114926,-0.1165557417754325,0.0,0.03009648248553276,-0.08032267449149047,-0.13302213441536867,-0.10822114763179755,-0.08032267449149047,0.0,0.0,0.0,0.11471259231339852,0.011258051249272963,-0.00019363212802644047,-0.08386881767920203,-0.03272276028729384,0.0,-0.014114131918986743,0.0,-0.06620854257250372,-1.7537068324039022,-1.7113003867189243,0.04240644568497798,0.04240644568497798,0.03672982176002319,10.343820571899414,0.0,10.476952207195684,1,0.0035252577215558745,-0.0029930157130022626,0.005684655615049031,10.260170936584473,1,-0.025138092041015626,0.029146943315208913,0.002564078013028237,-1.7113003867189243,1.5707963267948966,-1.6965861142394205,1,-0.008828563487702246,-0.02013322122066811,-0.0009713106246631244,0.04006746300001396
27.40148144700015,10.497500006234157,0.0,0.0,-0.030476379760055537,0.054318969984626805,-0.0,-0.03055860593952052,-0.03083510526973904,0.0,0.04109172523021698,-0.06172540250580508,-0.038123484818686014,-0.049476803882891364,-0.06172540250580508,0.0,0.0,0.0,0.0804429883108024,0.01632873897620599,-0.04254171452042515,0.003232414735815344,-0.033978802150922555,0.0,-0.020753684742925323,0.0,-0.04097171776287976,-1.7303194204271781,-1.711003115914745,0.019316304512432936,0.019316304512432936,0.016660966718898745,10.346529006958008,0.0,10.476952207195684,1,0.004109559807694652,-0.0027570250093026717,0.004736080128280848,10.260170936584473,1,-0.025907421112060545,0.028127460291380343,0.004282211479354976,-1.711003115914745,1.5707963267948966,-1.6965861142394205,1,-0.008650201005194669,-0.02048253052577729,4.340501682204587e-05,0.03997225900002377
27.50290374300016,10.4993931693112,0.0,0.0,-0.020461274432570276,0.00623225003680404,-0.0,-0.057870472376124533,0.03268279402239228,0.0,0.05060294643044472,-0.05018241166871231,0.03149553433987913,-0.010725543449021985,-0.05018241166871231,0.0,0.0,0.0,0.057674892644611966,0.018813151249315447,-0.07057476386986893,0.0649352266441506,-0.032139654330886114,0.0,-0.02668592142639163,0.0,-0.02349649024232068,-1.7163567864112237,-1.7105934623617014,0.005763324049522289,0.005763324049522289,-0.00928459492425502,10.353193283081055,0.0,10.476952207195684,1,0.004488192423103144,-0.0025815774044884547,0.0038479708418204714,10.260170936584473,1,-0.02722063064575195,0.02741139730964566,0.005935644055898284,-1.7105934623617014,1.5707963267948966,-1.6965861142394205,1,-0.008404408873368529,-0.020708651479477543,0.0007586000876990875,0.03995290699981524
27.601535095000145,10.500356514432136,0.0,0.0,-0.0104817069177844,0.04529777375521826,-0.0,-0.07831646237413173,0.0850706614435015,0.0,0.0729304775595665,-0.08975403625899908,0.07797856268030777,-0.05664141159899802,-0.08975403625899908,0.0,0.0,0.0,0.033660668718342765,0.02118955827401306,-0.010136573240145906,0.11218118310163001,-0.02703234429297762,0.0,-0.0406891512566131,0.0,-0.04906488500238599,-1.696809098788887,-1.7097162006245654,-0.012907101835678336,-0.012907101835678336,-0.03588303043053364,10.359082221984863,0.0,10.476952207195684,1,0.004680861447290497,-0.0023012594184964505,0.002438995016304628,10.260170936584473,1,-0.029673385620117187,0.026258693823146086,0.008529917262182433,-1.7097162006245654,1.5707963267948966,-1.6965861142394205,1,-0.007878051831086941,-0.02103175407827232,0.0015847903996048056,0.039892776999977286
27.70107457600011,10.4995629343035,0.0,0.0,0.004230766362882544,-0.032571777210687276,-0.0,-0.08309660545345865,0.10122679942916603,0.0,0.06989648938179016,-0.03799096034608904,0.10474918089715397,0.01831378428153406,-0.03799096034608904,0.0,0.0,0.0,-0.0013623305276735712,0.021513126380804614,-0.05338022385186475,0.12395141645689238,-0.02275810054750923,0.0,-0.039849583572225476,0.0,0.0018586232261364423,-1.6905259134817079,-1.7090190955635363,-0.018493182081828152,-0.018493182081828152,0.02598231643406216,10.369903564453125,0.0,10.476952207195684,1,0.004522145421563195,-0.0021180508776251395,0.001207430670001956,10.260170936584473,1,-0.03165979385375976,0.025429997753795754,0.009710312861378372,-1.7090190955635363,1.5707963267948966,-1.6965861142394205,1,-0.007459788794469446,-0.0212334273255859,0.0019381636015477735,0.04011005600000317
27.801502280000022,10.497233362113565,0.0,0.0,0.010885002388793953,0.022502255472003126,-0.0,-0.06928407579598177,0.07798917608595775,0.0,0.10517332702875137,-0.177176069951768,0.07417849124423614,-0.03295776880528473,-0.177176069951768,0.0,0.0,0.0,-0.02001870739729304,0.020478942384253677,0.02158473016926953,0.09460622850162698,-0.016688895853318855,-0.0,-0.06248402593441021,0.0,-0.11469204401735779,-1.6690583636821772,-1.7080016348983904,-0.038943271216213216,-0.038943271216213216,-0.05834022990343311,10.37775993347168,0.0,10.476952207195684,1,0.00405623098357637,-0.0018630078581188582,-0.00040763318997857553,10.260170936584473,1,-0.035276699066162105,0.024066740567834713,0.012243242303061746,-1.7080016348983904,1.5707963267948966,-1.6965861142394205,1,-0.006849312395381934,-0.021515314336335644,0.00208338207283898,0.03993333400012489
27.901098835000084,10.494853054069731,0.0,0.0,0.022062438492147667,-0.0013344936072345725,-0.0,-0.06169750550809358,0.06476630549133987,0.0,0.08200512081384659,-0.06656699948739074,0.06434444131768315,-0.007499871445601032,-0.06656699948739074,0.0,0.0,0.0,-0.04775591099803394,0.018758415017301897,0.027300292941901845,0.07806806053194551,-0.013431456467903228,-0.0,-0.05059257811105296,0.0,-0.015974421376337786,-1.6617279808238012,-1.7074327656447152,-0.04570478482091378,-0.04570478482091378,-0.09564565742681146,10.388182640075684,0.0,10.476952207195684,1,0.0035801693748094723,-0.001714530138343684,-0.0015104330161517287,10.260170936584473,1,-0.0375497817993164,0.023078880527629252,0.012155058567112137,-1.7074327656447152,1.5707963267948966,-1.6965861142394205,1,-0.0065079908431768365,-0.021691091645040385,0.0019870590400988693,0.03993077799987077
28.004313354000033,10.49062421131337,0.0,0.0,0.03905381472490128,-0.12021328196316747,-0.0,-0.05086174335304076,0.04386179313138484,0.0,0.087254099547863,-0.10116109766963058,0.05976791181079612,0.1131498421334882,-0.10116109766963058,0.0,0.0,0.0,-0.09041790265706064,0.014466826665389758,-0.04450879920415865,0.05371949088566332,-0.010047042550306261,0.0,-0.05611054162293844,0.0,-0.045050556046692135,-1.6559683942922199,-1.7069065607037777,-0.050938166411557795,-0.050938166411557795,-0.05737116431539626,10.393486976623535,0.0,10.476952207195684,1,0.002734400823537442,-0.0015324642593843973,-0.0032471685015520494,10.260170936584473,1,-0.03999481201171875,0.021512121615613597,0.012219220572404096,-1.7069065607037777,1.5707963267948966,-1.6965861142394205,1,-0.006192267878614288,-0.02194203739237112,0.0016905123205188841,0.04010038899991741
28.10107789100016,10.48737859279272,0.0,0.0,0.038467102639398225,-0.027246216480411325,-0.0,-0.03141479004922899,0.0011472212820662858,0.0,0.08639334887266159,-0.09172785725956309,0.004827326670697107,0.02683969721106853,-0.09172785725956309,0.0,0.0,0.0,-0.09213967082738715,0.01091391619615543,0.05388543560411579,0.010197664146336815,-0.009165670510772135,-0.0,-0.057238436790604044,0.0,-0.03448942046895904,-1.6552702625914222,-1.706670590881792,-0.05140032829037011,-0.05140032829037011,-0.07280679438640192,10.403923034667969,0.0,10.476952207195684,1,0.0020852771194071807,-0.0014432625815704466,-0.004056580456341758,10.260170936584473,1,-0.04177150726318359,0.02040921223280788,0.012358249252030565,-1.706670590881792,1.5707963267948966,-1.6965861142394205,1,-0.006050685985422932,-0.022104464939764253,0.0013756627606567485,0.039856500000041706
28.201521187000026,10.482792180659846,0.0,0.0,0.04029970394113568,-0.14812340253915557,-0.0,0.0008316972691063016,-0.07406949415509247,0.0,0.04868244007229805,0.0391253805424897,-0.05332809767534197,0.15678949691384683,0.0391253805424897,0.0,0.0,0.0,-0.09884822671295632,0.005732781082363519,-0.05500802289483203,-0.06284226650648993,-0.011224030298780465,-0.0,-0.0389013985282966,0.0,0.0780267790707863,-1.6571901247686156,-1.7066350733016797,-0.049444948533063915,-0.049444948533063915,-0.06565161815670921,10.410475730895996,0.0,10.476952207195684,1,0.001167994692832508,-0.0013551639207993612,-0.00444413897315033,10.260170936584473,1,-0.04509143829345703,0.018647146985608386,0.010291067166319017,-1.7066350733016797,1.5707963267948966,-1.6965861142394205,1,-0.006029375437355533,-0.022344661143559378,0.0006410672561621553,0.03998914799990416
28.301143353000043,10.479968977833018,0.0,0.0,0.03605196725395686,-0.10213116659964089,-0.0,0.015806090697176516,-0.11181213860203115,0.0,0.04010266810655594,-0.007996909929242572,-0.09694014486261657,0.11634147086820906,-0.007996909929242572,0.0,0.0,0.0,-0.09054082247964074,0.002453031223285611,-0.014067214393158495,-0.0973394027118187,-0.014418361620075478,-0.0,-0.037168994887769424,0.0,0.029172084958526853,-1.6584118552450122,-1.7067317548446423,-0.04831989959963012,-0.04831989959963012,-0.07760875172744074,10.421956062316895,0.0,10.476952207195684,1,0.0006033541274668153,-0.0013258598284177706,-0.00438044635401979,10.260170936584473,1,-0.0476283073425293,0.01739609565592919,0.008386554980207003,-1.7067317548446423,1.5707963267948966,-1.6965861142394205,1,-0.006087384363133097,-0.022506632075524557,0.00015492408500749138,0.04016046300012022
28.401531890000115,10.47705307268598,0.0,0.0,0.026719555483193352,-0.055372969794070664,-0.0,0.01395326385593976,-0.11502910971472483,0.0,0.017964497208595276,0.0031046275668859917,-0.10644904988947798,0.07047312709965901,0.0031046275668859917,0.0,0.0,0.0,-0.06990742313517626,-0.0016126889321590556,0.01612855941691346,-0.09499915876331307,-0.01999436603977832,0.0,-0.02848509553042165,0.0,0.03158972309730764,-1.6650441064025905,-1.7069436138091327,-0.04189950740654247,-0.04189950740654247,-0.06072082171777126,10.428155899047852,0.0,10.476952207195684,1,2.017309805921741e-05,-0.0013161516662891861,-0.003760567373656787,10.260170936584473,1,-0.05039548873901367,0.015415110846889363,0.005469715883350173,-1.7069436138091327,1.5707963267948966,-1.6965861142394205,1,-0.006214499741827328,-0.02275331210301293,-0.00026036010072592164,0.03999249999992571
28.50363709400017,10.475701177774848,0.0,0.0,0.01595507122744367,-0.04332448899066339,-0.0,0.021787361871510494,-0.13759670986276254,0.0,0.010946309193968773,-0.0006439282998510244,-0.13043161712740117,0.06162352768943363,-0.0006439282998510244,0.0,0.0,0.0,-0.04501245470828352,-0.0033828653592832144,0.0050255177246737795,-0.11329433777061103,-0.024269188737202872,0.0,-0.02686144788094698,0.0,0.026217519581095954,-1.6690583636821772,-1.7071303217679783,-0.03807195808580133,-0.03807195808580133,-0.051660144576727116,10.434359550476074,0.0,10.476952207195684,1,-0.00025020588416708734,-0.0013231465777370363,-0.0029317829962356265,10.260170936584473,1,-0.051652050018310545,0.014045030637525047,0.003784248773175973,-1.7071303217679783,1.5707963267948966,-1.6965861142394205,1,-0.0063265245171346685,-0.02292128059633047,-0.0004622592743930128,0.03998716699993565
28.601593761000004,10.473846230786497,0.0,0.0,0.01180319528795981,-0.03239711443652653,-0.0,0.013832674250610794,-0.12670966057534291,0.0,-0.016338661313056946,0.050195078555103786,-0.12112365066058178,0.04933530538656218,0.050195078555103786,0.0,0.0,0.0,-0.034812209909785445,-0.005452792175960414,0.007849619013924582,-0.0965954022697616,-0.03009866997709747,-0.0,-0.01422511382065826,0.0,0.06442019237576205,-1.676563279465753,-1.707274280285029,-0.030711000819275913,-0.030711000819275913,-0.04423552579055006,10.435623168945312,0.0,10.476952207195684,1,-0.0006211952818372169,-0.0013537957655414756,-0.0020455454418366976,10.260170936584473,1,-0.05263566970825195,0.011946326099620298,0.000642159261144275,-1.707274280285029,1.5707963267948966,-1.6965861142394205,1,-0.006412899627365042,-0.023177227759485854,-0.00048419939424812855,0.03999585099995784
28.701066889999993,10.473647095575917,0.0,0.0,0.006687438360149925,-0.05336609464202143,-0.0,-0.0018916640069996968,-0.09481384115161559,0.0,-0.022032493725419044,0.04034994689727526,-0.08667122227713442,0.06577008256230596,0.04034994689727526,0.0,0.0,0.0,-0.02229344586430875,-0.006222147588170565,-0.024850842846338716,-0.06196229324296938,-0.03285275573876779,0.0,-0.01271856274817715,0.0,0.05306850964545241,-1.6795303391941432,-1.7072783848960218,-0.02774804570187861,-0.02774804570187861,-0.0324239549806153,10.438222885131836,0.0,10.476952207195684,1,-0.0006610223239533752,-0.0013807505041355868,-0.0014041732955378187,10.260170936584473,1,-0.05292835235595703,0.010536517710984681,-0.0008382636607419494,-1.7072783848960218,1.5707963267948966,-1.6965861142394205,1,-0.006415362393960766,-0.023348357509853507,-0.0002926228499896873,0.040104925000150615
28.80154937200018,10.474837333871529,0.0,0.0,-0.006722161814167375,0.0561620731666321,-0.0,-0.009835471343185381,-0.07952679922714534,0.0,-0.019589535892009735,-0.03683493736442076,-0.08642207312884295,-0.0448320815243029,-0.03683493736442076,0.0,0.0,0.0,0.010078218926132766,-0.006320987529793264,0.0523956066391436,-0.044082310209541196,-0.03543817716494428,-0.0,-0.01686067216304587,0.0,-0.019974265201374894,-1.6920967098085022,-1.707132732682038,-0.015036022873535781,-0.015036022873535781,-0.027863147674433014,10.439118385314941,0.0,10.476952207195684,1,-0.00042297466483098844,-0.0014126587684970648,-0.0003055197780517013,10.260170936584473,1,-0.053684234619140625,0.00839519317614836,-0.0024016147207605886,-1.707132732682038,1.5707963267948966,-1.6965861142394205,1,-0.006327971065570503,-0.023603105520171988,5.8191510947475524e-05,0.040007537000064985
28.901133427000104,10.476856797476348,0.0,0.0,-0.005490376906948799,0.04310243887984176,-0.0,-0.02841252680334998,-0.03840825921714122,0.0,-0.037351734936237335,-0.010944910879529948,-0.0439001422484306,-0.037493894490292244,-0.010944910879529948,0.0,0.0,0.0,0.009099757181050787,-0.006145916611546983,0.040071545459950085,-0.0025204632566364024,-0.03587290642979493,0.0,-0.008695402882978662,0.0,-0.0022495079965512864,-1.6987289609660812,-1.7068672009574717,-0.008138239991390517,-0.008138239991390517,0.019661791721059873,10.444025039672852,0.0,10.476952207195684,1,-1.9081943867149677e-05,-0.0014179200980990057,8.287839913134983e-05,10.260170936584473,1,-0.054673290252685545,0.006942070966279294,-0.004112853788128854,-1.7068672009574717,1.5707963267948966,-1.6965861142394205,1,-0.006168652030830701,-0.02376892403937925,0.0003793841502070572,0.03996787000005497
29.00375624200001,10.480351731106252,0.0,0.0,-0.007980640550188382,0.022895904023145675,-0.0,-0.04557490578883584,0.0024211533415877703,0.0,-0.053529877215623856,0.03536667251782162,-0.000693345953274594,-0.023013119647923824,0.03536667251782162,0.0,0.0,0.0,0.01714528467724514,-0.005492307887604181,0.011044739988367098,0.03671733253434229,-0.03426147454251555,-0.0,-0.00220690184732477,0.0,0.03757357436514639,-1.708502804777249,-1.7062701044483979,0.002232700328851145,0.002232700328851145,-0.005731172989577534,10.446232795715332,0.0,10.476952207195684,1,0.0006799047821136384,-0.00139272103890874,0.0005254869235363273,10.260170936584473,1,-0.05581855773925781,0.0047243582298442215,-0.00611384745175155,-1.7062701044483979,1.5707963267948966,-1.6965861142394205,1,-0.00581039412538642,-0.02400679969003368,0.0009319846331034772,0.04009475900011239
29.101075316000106,10.482511603224335,0.0,0.0,-0.00995053891643895,0.024623486131991484,-0.0,-0.06235540571443701,0.0430006060606352,0.0,-0.038326043635606766,-0.06230387983069987,0.039298149876621696,-0.030183167612907888,-0.06230387983069987,0.0,0.0,0.0,0.023190492084673928,-0.004698729879395743,0.005760801692712042,0.07488813967464356,-0.031828342657232216,0.0,-0.013085111053917116,0.0,-0.04921876877678275,-1.7116443974308388,-1.7057010893782465,0.0059433080525925774,0.0059433080525925774,0.024064612814747702,10.452670097351074,0.0,10.476952207195684,1,0.001111879205730304,-0.0013508245439963974,0.0008295391875880177,10.260170936584473,1,-0.05703792572021484,0.0032078524387910336,-0.006304488777378149,-1.7057010893782465,1.5707963267948966,-1.6965861142394205,1,-0.005468985083295586,-0.024155138824261947,0.0013087816815948554,0.040074889000152325
29.201508371000045,10.484987059546599,0.0,0.0,-0.011871295914729194,0.01924923781936769,-0.0,-0.07173790390380237,0.07020325455201326,0.0,-0.050183385610580444,-0.015636829930325242,0.06699991170549324,-0.028461235703627775,-0.015636829930325242,0.0,0.0,0.0,0.029331424775470075,-0.0033387387281888494,-0.007234276383187741,0.09713370670316379,-0.026849229171979648,0.0,-0.0089157859121092,0.0,-0.006721044018216042,-1.7210691753916085,-1.7048776754603414,0.016191499931267117,0.016191499931267117,0.01806676490781832,10.455785751342773,0.0,10.476952207195684,1,0.0016069704701831,-0.0012664487800771306,0.0011206482021966883,10.260170936584473,1,-0.05868444442749023,0.0008813892490294013,-0.007239973618968283,-1.7048776754603414,1.5707963267948966,-1.6965861142394205,1,-0.004974936732552537,-0.024360324401597234,0.0017490420954218446,0.03999429600003168
29.30108035300009,10.487161668660812,0.0,0.0,-0.009828028797853912,0.03730798085143255,-0.0,-0.0722045705360833,0.07588229975856838,0.0,-0.07301844656467438,0.040201452183456304,0.07024212381407259,-0.04707497099254104,0.040201452183456304,0.0,0.0,0.0,0.025989437636581337,-0.0024223886256920487,0.013243800188431902,0.09905264500393068,-0.02310267883370721,-0.0,0.0026028040747518577,0.0,0.03759864810870445,-1.7231635704940014,-1.7042782418997884,0.018885328594213213,0.018885328594213213,0.03771849621682649,10.456913948059082,0.0,10.476952207195684,1,0.002041892293025782,-0.0011881769831056182,0.00113163663612653,10.260170936584473,1,-0.05915765762329101,-0.000699846581001164,-0.00882293556912911,-1.7042782418997884,1.5707963267948966,-1.6965861142394205,1,-0.004615276596220718,-0.0244860536716214,0.0019206892790000363,0.040682111000023724
29.401828297000066,10.489668416299102,0.0,0.0,-0.007651277970556059,-0.008416292569162641,-0.0,-0.07529445948880985,0.08976693784614138,0.0,-0.07247474044561386,0.04709101328778172,0.09009156895114222,-0.003527933503390023,0.04709101328778172,0.0,0.0,0.0,0.022623784169793888,-0.0009612401550047419,-0.030619297483640763,0.10697534556415061,-0.017153487122206927,0.0,0.0005050141460186342,0.0,0.04658599914176309,-1.7283995582499845,-1.7034196201045462,0.024979938145438307,0.024979938145438307,0.05044936167885836,10.456950187683105,0.0,10.476952207195684,1,0.0025432418206836616,-0.001045755088890659,0.00113477355664816,10.260170936584473,1,-0.05903377532958984,-0.0030610089413705558,-0.00953826593128908,-1.7034196201045462,1.5707963267948966,-1.6965861142394205,1,-0.004100103519075393,-0.02465707812032568,0.0020878792252051383,0.03981688899989422
29.503227704999972,10.49133114512401,0.0,0.0,-0.004954277370328681,-0.014891555251142654,-0.0,-0.07322422669625962,0.08985403930149985,0.0,-0.08078012615442276,0.08778708269925184,0.09103245574038811,0.0029323707929918875,0.08778708269925184,0.0,0.0,0.0,0.017296957563925477,-0.00017773097852012546,-0.03252185019394679,0.10305486523319134,-0.013166247561772272,-0.0,0.004403980905214871,0.0,0.08338310179403696,-1.7290976899507822,-1.702832774054178,0.02626491589660418,0.02626491589660418,0.041738972055391586,10.45685863494873,0.0,10.476952207195684,1,0.0028757875856651794,-0.0009347683761211427,0.0009669568582752251,10.260170936584473,1,-0.058843231201171874,-0.004629287312777302,-0.009967639465115466,-1.702832774054178,1.5707963267948966,-1.6965861142394205,1,-0.0037479958888544827,-0.024759376114342348,0.002126265867478721,0.03996331400003328
29.6015697790001,10.493087398044695,0.0,0.0,-0.0066498500195019145,0.07310033275695023,-0.0,-0.06679517742480984,0.08164283381936588,0.0,-0.060674525797367096,-0.06487952349487813,0.07137787118420584,-0.0831529342142799,-0.06487952349487813,0.0,0.0,0.0,0.02176112474770491,0.0008487439775681905,0.05006527022951332,0.08952364508682473,-0.007838480741175066,-0.0,-0.008900380526170358,0.0,-0.055979142968707776,-1.727352360698788,-1.701996575494187,0.025355785204601133,0.025355785204601133,0.022472665081136767,10.455487251281738,0.0,10.476952207195684,1,0.0032270381698022987,-0.0007450779237711861,0.0007596100743328409,10.260170936584473,1,-0.058594894409179685,-0.006983403584562143,-0.009930195347242522,-1.701996575494187,1.5707963267948966,-1.6965861142394205,1,-0.0032462767528599113,-0.024895792411981768,0.0020394576885885357,0.03989338799988218
29.70108035300018,10.493613564884026,0.0,0.0,-0.0020628462430512997,0.04880499870568102,-0.0,-0.06185867720435326,0.07379539915843068,0.0,-0.06652142852544785,-0.010933869545856057,0.06680104782214549,-0.05801128205338226,-0.010933869545856057,0.0,0.0,0.0,0.011512495135160438,0.0011710109988628489,0.03575684259462052,0.07876200907298589,-0.004954449666888167,0.0,-0.005959611260736513,0.0,-0.004974258285119544,-1.7259560972971923,-1.7015700340681852,0.02438606322900716,0.02438606322900716,0.039946538238904435,10.4527587890625,0.0,10.476952207195684,1,0.003332271537668419,-0.0006131412885800841,0.00045097584202420063,10.260170936584473,1,-0.05795373916625976,-0.008532324652004658,-0.009968050141744286,-1.7015700340681852,1.5707963267948966,-1.6965861142394205,1,-0.002990351897258803,-0.024977033784214897,0.0019096216921140293,0.04007409300015752
29.80151950100003,10.494456577707846,0.0,0.0,0.0020805733851255266,0.008058022070786867,-0.0,-0.056626615877380965,0.0665796761517702,0.0,-0.05609966069459915,-0.06314450861681581,0.06497060303144156,-0.016631468302549933,-0.06314450861681581,0.0,0.0,0.0,0.002114442430840033,0.001164495382697395,0.004473534979687435,0.06750868199385979,-0.0009402323242815706,-0.0,-0.013211690710543485,0.0,-0.04993281790627232,-1.7179275827380187,-1.7009570337824076,0.016970548955611342,0.016970548955611342,0.010784584115104766,10.451936721801758,0.0,10.476952207195684,1,0.0035008741024324056,-0.00040736763678578556,-5.1822884684714625e-05,10.260170936584473,1,-0.05752973556518554,-0.01083775702635218,-0.009751652620633901,-1.7009570337824076,1.5707963267948966,-1.6965861142394205,1,-0.0026225517257922435,-0.025086755822037416,0.0017684562131122315,0.039925389000018185
29.901085075000083,10.494694858997908,0.0,0.0,0.00019228549649812684,0.06101017412717804,-0.0,-0.05296484946543582,0.06122190848180326,0.0,-0.054015710949897766,-0.07043794335433654,0.05281344314041767,-0.06841859139763656,-0.07043794335433654,0.0,0.0,0.0,0.0064107398028379805,0.001165200015453191,0.05316693017888721,0.05967829543334431,0.0015426426179211237,-0.0,-0.01485049635209528,0.0,-0.055587447002241254,-1.7154841217852264,-1.7005459330403865,0.014938188744840097,0.014938188744840097,0.031648537857632615,10.448995590209961,0.0,10.476952207195684,1,0.003548530360444957,-0.00026595010683380237,-0.0001763221194594006,10.260170936584473,1,-0.056995582580566403,-0.01235963724838561,-0.009411318374437889,-1.7005459330403865,1.5707963267948966,-1.6965861142394205,1,-0.0023758912805795784,-0.02515171846440531,0.0016892582037964755,0.04009386999996423
30.004658241000016,10.49459837212451,0.0,0.0,0.006974319735567949,-0.0689063251591408,-0.0,-0.0567650276141056,0.073786593311051,0.0,-0.07247861474752426,0.06270135294283688,0.0820483312056357,0.058826986543235246,0.06270135294283688,0.0,0.0,0.0,-0.00856818953237727,0.001054188481379851,-0.061699364763323584,0.06848990788081029,0.005258961504241731,0.0,-0.004788956697910835,0.0,0.06749030964074772,-1.704488547497662,-1.6999755638088092,0.004512983688853112,0.004512983688853112,-0.03405583630331376,10.447970390319824,0.0,10.476952207195684,1,0.0035292329857654183,-5.3797247374225176e-05,-0.0003957476084492748,10.260170936584473,1,-0.05633983612060547,-0.014621130697226531,-0.009499242426210317,-1.6999755638088092,1.5707963267948966,-1.6965861142394205,1,-0.002033669741633215,-0.025237276334138654,0.0016376947711254886,0.040093221999995876
30.101133649000076,10.494275030777434,0.0,0.0,0.0035303686399034222,-0.053882125783844124,-0.0,-0.049574961168786194,0.060116989331124734,0.0,-0.06987126171588898,0.05704659175821618,0.06654425301643532,0.04570774853030066,0.05704659175821618,0.0,0.0,0.0,-0.0006114703687817121,0.0012145314930013826,-0.05471937905260726,0.052751753282358024,0.0073485585853191255,-0.0,-0.006861543635315048,-0.0,0.06390813539353123,-1.7015214877692721,-1.6996922138062869,0.0018292739629854893,0.0018292739629854893,0.013792838606412061,10.44575023651123,0.0,10.476952207195684,1,0.003464564716350083,8.55087126931359e-05,-0.0002976458658587569,10.260170936584473,1,-0.05591583251953125,-0.016115184311250835,-0.009276150943965299,-1.6996922138062869,1.5707963267948966,-1.6965861142394205,1,-0.0018636597401198163,-0.02528797473002887,0.0015547429751615906,0.03999316599993108
30.201712482000175,10.493233455480754,0.0,0.0,0.0006280153376648067,-0.00548915297346324,-0.0,-0.05045478359639286,0.06545888990863565,0.0,-0.06485679000616074,0.021360604520590253,0.06562261099711837,-0.0029444854147783013,0.021360604520590253,0.0,0.0,0.0,0.006171756469715998,0.0016341859998800095,-0.013537697992460185,0.05494856749415477,0.010507302718207882,-0.0,-0.01080471871535046,-0.0,0.032165323235940714,-1.6908749793321063,-1.6992969947343195,-0.008422015402213212,-0.008422015402213212,-0.04534416885185712,10.445119857788086,0.0,10.476952207195684,1,0.00325624965701401,0.00028475309516225167,-0.00010764356464054698,10.260170936584473,1,-0.055484676361083986,-0.018336557005522943,-0.009043421165137913,-1.6992969947343195,1.5707963267948966,-1.6965861142394205,1,-0.001626528296939389,-0.025356085024577937,0.0015044513133766297,0.04006957399997191
30.30111735200012,10.492778063228432,0.0,0.0,0.002520811785951881,-0.015877298619082283,-0.0,-0.04996478850016036,0.06654131721682173,0.0,-0.04827219247817993,-0.07282422774248125,0.0680248383276897,0.007242712121911734,-0.07282422774248125,0.0,0.0,0.0,0.0020079232412854487,0.001805376168216802,-0.019928521681865125,0.054132919667179265,0.012396393881312234,0.0,-0.02132968499334,-0.0,-0.05149454274914125,-1.6868607220525196,-1.6989528500654898,-0.012092128012969994,-0.012092128012969994,-0.027536769465939987,10.445831298828125,0.0,10.476952207195684,1,0.003165171206549644,0.0004126876350341369,-0.00014435467322942397,10.260170936584473,1,-0.055466938018798824,-0.019815792075682296,-0.008538937372598815,-1.6989528500654898,1.5707963267948966,-1.6965861142394205,1,-0.0014200414956415663,-0.025395666161790953,0.0014567917332627292,0.039829388000043764
30.401517778000198,10.49217026899932,0.0,0.0,0.005123804141601543,0.007026370413249354,-0.0,-0.04910108671048637,0.06837525633932597,0.0,-0.04046439379453659,-0.11169958960125367,0.06692724933017216,-0.015661700346695798,-0.11169958960125367,0.0,0.0,0.0,-0.0041196104569118635,0.001715418974372102,0.00920077943378751,0.052976329700676304,0.01537494834388374,0.0,-0.027414690283055144,-0.0,-0.08428489931819853,-1.684242728174528,-1.698268226965874,-0.01402549879134618,-0.01402549879134618,-0.030060515308572216,10.447881698608398,0.0,10.476952207195684,1,0.0030436123607273657,0.0005966729039885408,-0.000389031330801574,10.260170936584473,1,-0.05631322860717773,-0.022053414759918857,-0.007788900899198574,-1.698268226965874,1.5707963267948966,-1.6965861142394205,1,-0.0010092676358720797,-0.025441479523757277,0.0014298103130867554,0.03986779599995316
30.503345204000198,10.492184965524716,0.0,0.0,0.002189150287462012,0.03938191208731745,-0.0,-0.04393816694862018,0.05917853560813588,0.0,-0.04559479281306267,-0.05871942988300778,0.0537109534653725,-0.046563586139999946,-0.05871942988300778,0.0,0.0,0.0,0.0025252343344742572,0.0016368285132857794,0.035035849193699634,0.042006948602132055,0.017162419492171177,-0.0,-0.025422369039190682,-0.0,-0.0332970608438171,-1.6844172610997272,-1.6978588060791184,-0.013441544979391207,-0.013441544979391207,-0.02036246189017383,10.452139854431152,0.0,10.476952207195684,1,0.0030465516658065186,0.0007179859797781611,-0.0004275535697252781,10.260170936584473,1,-0.05684394836425781,-0.023562496615737016,-0.007558962898385639,-1.6978588060791184,1.5707963267948966,-1.6965861142394205,1,-0.0007636151038187489,-0.025463487175866092,0.0013830028774883174,0.03997494400005053
30.60185325900011,10.494700999147065,0.0,0.0,-0.0032489624677810424,0.02472926671341704,-0.0,-0.03782686534496132,0.04823118553539929,0.0,-0.049739494919776917,0.004902771028549229,0.04472760887221168,-0.030614129007827028,0.004902771028549229,0.0,0.0,0.0,0.016999769918497155,0.0023403237305978583,0.005252830757672022,0.029037039965849512,0.019205856057136757,-0.0,-0.02488538921059441,-0.0,0.02978816023914364,-1.6886060513045138,-1.6972398689824826,-0.008633817677968558,-0.008633817677968558,0.013514748747648011,10.45445728302002,0.0,10.476952207195684,1,0.0035497583902763807,0.0009170125835103516,1.143470320365862e-05,10.260170936584473,1,-0.05828590393066406,-0.025880921163389414,-0.0070483185100474535,-1.6972398689824826,1.5707963267948966,-1.6965861142394205,1,-0.0003922528458372376,-0.02548460072189805,0.001248642752705566,0.039857982000057746
30.70107559300004,10.497428141523363,0.0,0.0,-0.0027829529057398442,0.018759144595389195,-0.0,-0.0349860719875098,0.04318037024306074,0.0,-0.04815160855650902,0.008175327187923662,0.04047953592484419,-0.024038657441458205,0.008175327187923662,0.0,0.0,0.0,0.01789941711293059,0.002996333938652266,-0.002253208848380896,0.023059091422251144,0.020130553910801683,-0.0,-0.026899171884965514,-0.0,0.035074499072889176,-1.693143907359699,-1.696842871170996,-0.0036989638112969736,-0.0036989638112969736,0.030949756266270053,10.456937789916992,0.0,10.476952207195684,1,0.004095186865535894,0.0010736958822768071,0.00018426303414317583,10.260170936584473,1,-0.058879280090332026,-0.027443281438386875,-0.0066610001693993125,-1.696842871170996,1.5707963267948966,-1.6965861142394205,1,-0.0001540541589452715,-0.02549039493257569,0.0011397822959435,0.03997414799982835
30.80151638899997,10.502292383505763,0.0,0.0,-0.0034128647286492254,0.030408987151296096,-0.0,-0.01586631142525366,0.0008354131549862866,0.0,-0.06220383942127228,-0.002956373629375463,-0.002980923126845736,-0.03027405674862639,-0.002956373629375463,0.0,0.0,0.0,0.022464709541469497,0.004263292877349367,0.0036570147429691776,-0.01914707915261646,0.019987648284284756,-0.0,-0.02053519819796639,-0.0,0.017578824568590928,-1.7002997572928755,-1.696410224839794,0.0038895324530816566,0.0038895324530816566,0.04170043801001912,10.45612907409668,0.0,10.476952207195684,1,0.005068035262015869,0.0013561852567789124,0.0003741463623148531,10.260170936584473,1,-0.05878744125366211,-0.029803393688418618,-0.007838334809135544,-1.696410224839794,1.5707963267948966,-1.6965861142394205,1,0.00010553363977585661,-0.02548947601796564,0.0008144131562922809,0.03983066699993287
30.901056444000005,10.50621179721667,0.0,0.0,-0.0045658594086839584,0.030990925279769717,-0.0,-0.003910118693699973,-0.027107433291602496,0.0,-0.06777606159448624,-0.022826568262482434,-0.030770074869701593,-0.027357866910048146,-0.022826568262482434,0.0,0.0,0.0,0.027418786217118945,0.005244305543565046,-0.0016736217179201462,-0.045775509060782794,0.01866977505457177,-0.0,-0.018743097596835134,-0.0,-0.004083470665647301,-1.704314014572463,-1.6961748373946066,0.008139177177856283,0.008139177177856283,0.04132038386061013,10.454395294189453,0.0,10.476952207195684,1,0.005851918004197288,0.0015811557796534812,0.0004641514516102468,10.260170936584473,1,-0.05852565765380859,-0.031363878861807575,-0.009125021073595295,-1.6961748373946066,1.5707963267948966,-1.6965861142394205,1,0.0002467661068883409,-0.02548403562085637,0.0005201012471849703,0.03988379599991276
31.003647037000064,10.510267557647094,0.0,0.0,-0.002871581512071367,0.04128892112271794,-0.0,0.014771453146853639,-0.07282273705025895,0.0,-0.08042898774147034,0.01953265174805537,-0.07740924163764112,-0.03187060319564833,0.01953265174805537,0.0,0.0,0.0,0.026185213878556067,0.006668683111057833,0.00841426387872679,-0.08769667301012009,0.014869900150921907,-0.0,-0.01267679802012071,-0.0,0.03220944976817608,-1.7078046730764513,-1.6960161128068842,0.011788560269566872,0.011788560269566872,0.02920346823669332,10.450813293457031,0.0,10.476952207195684,1,0.00666307009028202,0.0019661956193501463,0.0004015227230946769,10.260170936584473,1,-0.05719270706176757,-0.0336741256777663,-0.010690151702137643,-1.6960161128068842,1.5707963267948966,-1.6965861142394205,1,0.0003420008595217627,-0.02547125200921953,3.858020104228225e-05,0.03999811100015904
