t,radius,set_speed_r,set_speed_r_filtered,meas_speed_r,acc_cmd_r,set_speed_theta,meas_speed_theta,acc_cmd_theta,set_speed_z,meas_speed_z,acc_cmd_z,acc_x,acc_y,acc_z,pub_vel_x,pub_vel_y,pub_vel_z,pid_r_P,pid_r_I,pid_r_D,pid_vtheta_P,pid_vtheta_I,pid_vtheta_D,pid_z_P,pid_z_I,pid_z_D,yaw_enu,yaw_target,error_yaw,total_yaw_err,yaw_rate,drone_z,target_z,r_lock_position,r_lock_active,r_pid_P,r_pid_I,r_pid_D,z_lock_position,z_lock_active,z_pid_P,z_pid_I,z_pid_D,theta_actual,theta_target,theta_lock_position,theta_lock_active,theta_pid_P,theta_pid_I,theta_pid_D,dt
160.1008283120001,8.690840468305664,-0.0,-0.0,-0.004209385466197935,-0.07054832405610481,-0.0,-0.02967553648531526,0.06728581802311957,0.0,0.04605502635240555,-0.14650583277677054,0.059129778929495794,0.07751204150268845,-0.14650583277677054,0.0,0.0,0.0,0.010176819860886253,0.00019599248083765564,-0.08102246577660432,0.06607155807738284,0.0012286332129067352,-0.0,-0.026703260766357984,-0.0,-0.11980257201041254,1.4083061734342248,-1.4607357534028351,-2.8690419268370597,-2.8690419268370597,-4.367415672464282,5.93505859375,0.0,8.69067809022705,1,3.2475615722660225e-05,1.623780786133011e-08,0.000383949889765295,5.93405818939209,1,-0.00030012130737304686,-1.0004043579101562e-07,0.0018498130896177456,-1.4607357534028351,1.5707963267948966,-1.4608119436004563,1,4.571411857270391e-05,1.5238039524234637e-08,0.00031126055688289076,0.03987320299995645
160.20131966400004,8.6910521613493,-0.0,-0.0,-0.0038973578969851534,0.013629724434123873,-0.0,-0.026604727187716143,0.0653006441461442,0.0,0.03225943446159363,0.020778458166084673,0.06640449769653577,-0.006355013746821177,0.020778458166084673,0.0,0.0,0.0,0.009903562868733727,0.0009274113129104282,0.0027173088463539373,0.0606590345357967,0.004653540058085843,-0.0,-0.01699227317417311,-0.0,0.03777073134025778,1.4062117783318318,-1.4604388116042404,-2.8666505899360724,-2.8666505899360724,-4.690610489662807,5.935666561126709,0.0,8.69067809022705,1,7.48142244496819e-05,4.8864897862740445e-06,0.0005245608745669484,5.93405818939209,1,-0.0004825115203857422,-1.7556697220988673e-05,0.004439047388911846,-1.4604388116042404,1.5707963267948966,-1.4608119436004563,1,0.00022387919772954844,6.506665505717688e-06,0.0007371753744107265,0.04000583300000926
160.30086938600004,8.69042462914376,-0.0,-0.0,0.0009780793714906618,-0.04242154501085738,-0.0,-0.04253327371265257,0.10473381447500743,0.0,0.04451749473810196,-0.07138977104069658,0.09941065216226824,0.05372412504886409,-0.07138977104069658,0.0,0.0,0.0,-0.0015074499817925586,0.0010936562787751598,-0.042215920580334285,0.09677233554474107,0.007956691946960527,0.0,-0.023890711955779506,-0.0,-0.04749905908491706,1.4048155149302355,-1.460178070681259,-2.8649935856114945,-2.8649935856114945,-4.6874683679338585,5.935454845428467,0.0,8.69067809022705,1,-5.069221665827684e-05,4.289735351510953e-06,0.000339277315618992,5.93405818939209,1,-0.0004189968109130859,-2.831873346924326e-05,0.005146957022851781,-1.460178070681259,1.5707963267948966,-1.4608119436004563,1,0.00038032375151835217,1.5493829137542453e-05,0.0010583339543011098,0.04009294500008309
160.40130231199998,8.688961836052176,-0.0,-0.0,-0.00013263283003331003,0.008225669504013202,-0.0,-0.04201019836954547,0.1102580973250475,0.0,0.020581865683197975,0.044970577354573577,0.11049027269717455,0.004050839892281747,0.044970577354573577,0.0,0.0,0.0,-0.0003002954542038034,0.001001052191598298,0.007321797964143017,0.09692721449498022,0.013331524095572317,-0.0,-0.009455213061697134,-0.0,0.05442579041627071,1.4027211198278424,-1.4596845076610234,-2.862405627488866,-2.862405627488866,-4.683061895295682,5.93239164352417,0.0,8.69067809022705,1,-0.0003432508349749952,-9.086180833749144e-06,8.320625204643279e-05,5.93405818939209,1,0.0004999637603759766,-1.729880389841606e-05,0.004340512290558523,-1.4596845076610234,1.5707963267948966,-1.4608119436004563,1,0.0006764615636597249,3.8279563447782176e-05,0.0013328852737925763,0.04000029700000596
160.50344523800004,8.687375586307049,-0.0,-0.0,0.0016694849222730285,0.061841416548906715,-0.0,-0.043685013649487445,0.11881893842822017,0.0,0.0235905721783638,-0.0025559255996251886,0.12496153916021072,-0.048238103825665575,-0.0025559255996251886,0.0,0.0,0.0,-0.0056555203452524445,0.0005528002744398496,0.06672446378543276,0.10147132793128304,0.017339215387172088,-0.0,-0.010974485121230422,-0.0,0.008418559521605234,1.401673922276646,-1.4593089770260639,-2.8609828993027095,-2.8609828993027095,-4.683920861903734,5.9296393394470215,0.0,8.69067809022705,1,-0.0006605007840004618,-3.2029424900511024e-05,-0.00020867593484983688,5.93405818939209,1,0.0013256549835205078,1.4310355053838898e-05,0.0039597983044054146,-1.4593089770260639,1.5707963267948966,-1.4608119436004563,1,0.0009017799446354502,6.059253902537303e-05,0.001475944744707655,0.039999370000032286
160.6013762560001,8.684965897276633,-0.0,-0.0,0.0014800941572801528,0.0877380561659189,-0.0,-0.03761967338555928,0.11227723673399728,0.0,0.010342332534492016,0.06735574958897883,0.12137691833798553,-0.07464441093055796,0.06735574958897883,0.0,0.0,0.0,-0.007277489206298065,-0.000567865577670314,0.09542045811364414,0.08898150174575398,0.023289323833676278,-0.0,-0.0025435615357967804,-0.0,0.06989931112477561,1.40045219180025,-1.4588362812915534,-2.8592884730918033,-2.8592884730918033,-4.683645899021813,5.92458963394165,0.0,8.69067809022705,1,-0.0011424385900834723,-9.110230869750462e-05,-0.000594314583165263,5.93405818939209,1,0.0028405666351318357,0.0001113689579598183,0.0031511277150723946,-1.4588362812915534,1.5707963267948966,-1.4608119436004563,1,0.0011853973853417354,0.00010374624070368044,0.0015373201455562023,0.040064148000055866
160.70089944100005,8.683918999019827,-0.0,-0.0,0.010699458248647325,0.006165939349402504,-0.0,-0.0526842204737046,0.1509049957316241,0.0,0.03398621827363968,-0.02975791428719323,0.15064526666914402,0.010786110281490919,-0.02975791428719323,0.0,0.0,0.0,-0.028956300190330683,-0.0016669307723701818,0.036469541917684305,0.1230066294567407,0.027833454036827694,-0.0,-0.015842804587375126,-0.0,-0.013915109699818103,1.4006267247254494,-1.458481878366641,-2.85910860309209,-2.85910860309209,-4.684730050098807,5.923141956329346,0.0,8.69067809022705,1,-0.0013518182414447466,-0.0001427714587185245,-0.0009679066831578951,5.93405818939209,1,0.003274869918823242,0.00019880081795206983,0.00410787322457249,-1.458481878366641,1.5707963267948966,-1.4608119436004563,1,0.0013980391402892423,0.00013933878043445808,0.0016905059040901933,0.039894426000046224
160.80137053400006,8.68193259246937,-0.0,-0.0,0.007753630432502749,-0.009427034352776113,-0.0,-0.03682895732808329,0.12155091872380802,0.0,0.03033386543393135,0.009086190550952802,0.11971998582904653,0.02303518639783722,0.009086190550952802,0.0,0.0,0.0,-0.02326302684247673,-0.0026510467062025853,0.016330809913606047,0.08836821976371242,0.033149807881836815,-0.0,-0.012481655893703543,-0.0,0.021567846444656345,1.4020229881270447,-1.4581117944304383,-2.860134782557483,-2.860134782557483,-4.688326972891172,5.918248653411865,0.0,8.69067809022705,1,-0.001749099551536304,-0.00024115695738558625,-0.0008302161687920564,5.93405818939209,1,0.004742860794067383,0.0003772583004052926,0.004410986516619439,-1.4581117944304383,1.5707963267948966,-1.4608119436004563,1,0.001620089502010824,0.00020088977489859488,0.0015174360148765712,0.039940721999983
160.90089462600008,8.68173828389807,-0.0,-0.0,0.004838488595671,-0.07067528230799953,-0.0,-0.03970677631699834,0.13079982606248156,0.0,0.06801185011863708,-0.1363653377873423,0.12201128030866512,0.08495197175305118,-0.1363653377873423,0.0,0.0,0.0,-0.01658979857817673,-0.0030803925249912787,-0.05118669401684122,0.09464509627149861,0.036132600491746075,0.0,-0.03307855135373673,-0.0,-0.10328678643360557,1.4028956527530418,-1.4579726283808696,-2.8608682811339117,-2.8608682811339117,-4.691448536507058,5.914525508880615,0.0,8.69067809022705,1,-0.0017879612657960564,-0.0003118809462829798,-0.0006024867277848413,5.93405818939209,1,0.005859804153442383,0.0005318223715589583,0.006489304670741183,-1.4579726283808696,1.5707963267948966,-1.4608119436004563,1,0.0017035891317520146,0.00024535035716292405,0.0013647824993133567,0.04014992599991274
161.00347688500005,8.67992479838903,-0.0,-0.0,0.001837748018255919,-0.024375060847671395,-0.0,-0.02393232314029838,0.09934756343552475,0.0,0.07057483494281769,-0.05941779829138395,0.09596619887817628,0.035419918475027845,-0.05941779829138395,0.0,0.0,0.0,-0.010364088556060835,-0.0034938722697155514,-0.01058308631834287,0.05965781241176851,0.03968468397761877,-0.0,-0.0328015730499122,-0.0,-0.026616225241471756,1.4042919161546372,-1.4578180413511788,-2.862109957505816,-2.862109957505816,-4.6958326117519436,5.911328315734863,0.0,8.69067809022705,1,-0.002150658367604308,-0.0004330673519683791,-0.00028947560583540976,5.93405818939209,1,0.006818962097167969,0.0007979525259002104,0.008288631903229175,-1.4578180413511788,1.5707963267948966,-1.4608119436004563,1,0.0017963413495665215,0.0003161888195984001,0.0010723341504314773,0.04011077699999532
161.10084870000003,8.679062176559242,-0.0,-0.0,0.001995355693384159,-0.07800494127884491,-0.0,-0.0250921735984912,0.10329291333155152,0.0,0.10755627602338791,-0.2562176083640139,0.09384876335610293,0.08914374024554753,-0.2562176083640139,0.0,0.0,0.0,-0.010900996340620691,-0.003633754291841226,-0.06354273502538253,0.06179489759551249,0.04149224693171081,0.0,-0.05345396980544402,-0.0,-0.20276363855856988,1.4042919161546372,-1.4579133629308298,-2.862205279085467,-2.862205279085467,-4.690527023015522,5.910340309143066,0.0,8.69067809022705,1,-0.0023231827335617795,-0.0005245243264777725,-0.00011193558322205715,5.93405818939209,1,0.007115364074707031,0.0009875411925097,0.010363421080431139,-1.4579133629308298,1.5707963267948966,-1.4608119436004563,1,0.0017391484017758696,0.0003628768499371359,0.000894390965937831,0.039965888999972776
161.201368515,8.677927299759999,-0.0,-0.0,0.0016879780640147546,-0.06259971463823603,-0.0,-0.016614236226524196,0.08509350716423571,0.0,0.11927127838134766,-0.24365753460526715,0.07752962537318148,0.07175504458776784,-0.24365753460526715,0.0,0.0,0.0,-0.010593952992954458,-0.003685844653874074,-0.04835172560605197,0.042051526248910606,0.043038749214328764,0.0,-0.059361859326882926,-0.0,-0.18429567527838422,1.4028956527530418,-1.4583193904847902,-2.861215043237832,-2.861215043237832,-4.684273702378946,5.91179084777832,0.0,8.69067809022705,1,-0.0025501580934104598,-0.0006746437176583142,9.734669646786623e-05,5.93405818939209,1,0.006680202484130859,0.0012620690214815177,0.012392574664263726,-1.4583193904847902,1.5707963267948966,-1.4608119436004563,1,0.0014955318693996578,0.00042636832243628226,0.0005781936947810479,0.040015888999960225
161.30083031100003,8.678163627024546,-0.0,-0.0,-0.0022084277462985193,-0.12399820487479361,-0.0,-0.005988307185760886,0.0606336590420958,0.0,0.09986577183008194,-0.15559682652077095,0.04638484280862014,0.13000169913744983,-0.15559682652077095,0.0,0.0,0.0,-0.0013763471773372824,-0.0033001745076536053,-0.1193258153800324,0.0175808472717286,0.043054335680760086,0.0,-0.0478310194045438,-0.0,-0.10776580711622714,1.4002776588750505,-1.4587183505808834,-2.858996009455934,-2.858996009455934,-4.673947172228586,5.913512229919434,0.0,8.69067809022705,1,-0.002502892640501031,-0.0007757759676249329,0.0004446285084923161,5.93405818939209,1,0.006163787841796875,0.0014292929987839039,0.012554325315261497,-1.4587183505808834,1.5707963267948966,-1.4608119436004563,1,0.001256155811743742,0.0004615454879358044,0.0002852857289816589,0.040033833000052255
161.40131844100006,8.676753255818419,-0.0,-0.0,9.067746953164441e-05,-0.1655425338249337,-0.0,-0.01487254624018679,0.07967623928079845,0.0,0.12416627258062363,-0.23408480777569024,0.06072508276382963,0.17339290047299055,-0.23408480777569024,0.0,0.0,0.0,-0.0071229387908964895,-0.0029598563579982134,-0.15548523123358268,0.03642288296166961,0.04325320089176808,0.0,-0.06160975982978491,-0.0,-0.17247504794590532,1.394692605268669,-1.4590851142537034,-2.8537777195223724,-2.8537777195223724,-4.662236151175437,5.916815280914307,0.0,8.69067809022705,1,-0.0027849668817264473,-0.0009397817947159751,0.000577726695566572,5.93405818939209,1,0.005172872543334961,0.0016508199983492164,0.014659646989297937,-1.4590851142537034,1.5707963267948966,-1.4608119436004563,1,0.0010360976080517669,0.0005057887485804961,0.0001414232948489492,0.0400043890000461
161.50593292200006,8.676011254907158,-0.0,-0.0,-0.011756199730910787,0.003310701245100823,-0.0,8.250945188772096e-06,0.04607490102585422,0.0,0.08865039795637131,0.003669847437691859,0.046157180296354836,0.001836288203514703,0.003669847437691859,0.0,0.0,0.0,0.019171761592763882,-0.002328126839107382,-0.013532933516402383,0.003134286960571419,0.04294060288505761,0.0,-0.04089657830844,-0.0,0.04456642574613186,1.3901547492134831,-1.459302441663147,-2.84945719087663,-2.84945719087663,-4.6592110824191755,5.919526100158691,0.0,8.69067809022705,1,-0.002933367063978665,-0.0010567963975695498,0.0009484008182573739,5.93405818939209,1,0.004359626770019531,0.001772819305922874,0.014356988033028891,-1.459302441663147,1.5707963267948966,-1.4608119436004563,1,0.0009057011623855526,0.000530867284423775,-3.6416104517287278e-06,0.03999635100001342
161.60139053300009,8.672836372403617,-0.0,-0.0,-0.008108246986915337,-0.059719227099364156,-0.0,-0.006531072060528855,0.061004550596287524,0.0,0.10033456981182098,-0.08831350169523208,0.05399748495373653,0.06612271090534198,-0.08831350169523208,0.0,0.0,0.0,0.009370663022879044,-0.0018421814517297188,-0.06725262688877891,0.01741989419159638,0.04359076231319469,0.0,-0.048473440100884564,-0.0,-0.03984006159434751,1.3819517017291103,-1.4595482395175432,-2.8414999412466537,-2.8414999412466537,-4.643236654107837,5.92433500289917,0.0,8.69067809022705,1,-0.0035683435646866714,-0.0012581583407853803,0.0009776472016835526,5.93405818939209,1,0.0029169559478759766,0.0019028313879376176,0.014725715641199788,-1.4595482395175432,1.5707963267948966,-1.4608119436004563,1,0.0007582224497478584,0.0005634740882302032,6.536512494598243e-05,0.040069036999966556
161.70082607000006,8.670109083272711,-0.0,-0.0,-0.010345524167633263,0.11676816999176472,-0.0,-0.004247783036892082,0.057112371013102625,0.0,0.07884905487298965,0.08632625905804261,0.06970797537947718,-0.1097152068514577,0.08632625905804261,0.0,0.0,0.0,0.012424756117850136,-0.0018286709140567722,0.10617000365374857,0.01254977624566638,0.04456766339363748,-0.0,-0.03603772829213505,-0.0,0.12236398735017766,1.3765411810479282,-1.4596831585448933,-2.8362243395928215,-2.8362243395928215,-4.635254154134118,5.926280498504639,0.0,8.69067809022705,1,-0.004113801390867877,-0.0014173418667119157,0.0008332355071511369,5.93405818939209,1,0.0023333072662353516,0.001966680383162604,0.014486186736699946,-1.4596831585448933,1.5707963267948966,-1.4608119436004563,1,0.0006772710333378118,0.0005823250576210839,0.00019706462017919486,0.040010907000009865
161.80142747800005,8.665959962915853,-0.0,-0.0,-0.0034522521101534804,-0.07419240067719356,-0.0,-0.028302656605620716,0.11365640113802707,0.0,0.089213527739048,-0.06677694921255604,0.10474327628821042,0.08631996240907987,-0.06677694921255604,0.0,0.0,0.0,-0.005453488014532551,-0.0018503641256958684,-0.06698098380949853,0.06615901022879289,0.04750866581777377,0.0,-0.0433700917426117,-0.0,-0.02340685746994434,1.3688617323391528,-1.459851843720034,-2.8287135760591866,-2.8287135760591866,-4.621834523705758,5.931309223175049,0.0,8.69067809022705,1,-0.0049436254622396095,-0.0016990827569225708,0.0007115979205848138,5.93405818939209,1,0.0008246898651123047,0.0020197076561171523,0.014085643980132375,-1.459851843720034,1.5707963267948966,-1.4608119436004563,1,0.0005760599282533363,0.0006064663031846216,0.0005870945396653693,0.03999853700008771
161.900876422,8.66276225570735,-0.0,-0.0,-0.016406766738828113,0.07018657407933773,-0.0,-0.016022435216081505,0.08876823454209232,0.0,0.07058641314506531,0.044347609265714585,0.09599706109081077,-0.059920938799733606,0.044347609265714585,0.0,0.0,0.0,0.022076495018932534,-0.0013708412046614935,0.049451285557028345,0.03940277784649068,0.04939580225391417,-0.0,-0.03319683634408105,-0.0,0.07754444560979563,1.364847475059566,-1.459789640522991,-2.824637115582557,-2.824637115582557,-4.6261578132645935,5.93335485458374,0.0,8.69067809022705,1,-0.0055831669039402955,-0.0019154754365499152,0.0011266460648132477,5.93405818939209,1,0.0002110004425048828,0.0020268731227348897,0.01302047900635712,-1.459789640522991,1.5707963267948966,-1.4608119436004563,1,0.0006133818464791218,0.0006226610780481126,0.0006518754259779359,0.03996016599990071
162.00320516300008,8.659029180318852,-0.0,-0.0,-0.022100155027495898,0.09768759096426143,-0.0,-0.036556356562333664,0.14122758934573673,0.0,0.05227413773536682,0.07618919980540641,0.15121275919903684,-0.08138058046132995,0.07618919980540641,0.0,0.0,0.0,0.03323896544780708,-0.0004849053864158275,0.06477919868186903,0.08633169314562027,0.054989197785137604,-0.0,-0.023642528180571703,-0.0,0.09983172798597811,1.3611822836303773,-1.459388031258193,-2.8205703148885704,-2.8205703148885704,-4.622732351405349,5.934971332550049,0.0,8.69067809022705,1,-0.006329781981639826,-0.002282613175583122,0.0016208607878211757,5.93405818939209,1,-0.0002739429473876953,0.0020214542379966257,0.011122412810471714,-1.459388031258193,1.5707963267948966,-1.4608119436004563,1,0.000854347405357947,0.0006531823182072737,0.0011777924166557782,0.040066295999963586
162.100810755,8.657549733973456,-0.0,-0.0,-0.025797430079881566,0.0950657122937251,-0.0,-0.04500283115870726,0.16534697214475397,0.0,0.05432989075779915,0.0686767433687067,0.1749258094487301,-0.07601363062015871,0.0686767433687067,0.0,0.0,0.0,0.04140623684911558,0.0007729669752885047,0.052652579138906454,0.10617160175699596,0.05930946807427292,-0.0,-0.024904826010157446,-0.0,0.09358156937886415,1.3615313494807761,-1.458931899383104,-2.82046324886388,-2.82046324886388,-4.6271616602703585,5.933234214782715,0.0,8.69067809022705,1,-0.006625671250719023,-0.0025464623789317764,0.0021957202993672245,5.93405818939209,1,0.0002471923828125,0.0020262132542331157,0.010548441770491121,-1.458931899383104,1.5707963267948966,-1.4608119436004563,1,0.0011280265304113967,0.0006813946281735533,0.0014475666631604846,0.039976647999992565
162.20139023700006,8.656659898751343,-0.0,-0.0,-0.03638812867607559,0.17036848373376284,-0.0,-0.0550226456117762,0.19776246893117064,0.0,0.03855973482131958,0.11279241102600426,0.2156539435151676,-0.14706730096745005,0.11279241102600426,0.0,0.0,0.0,0.06526191353540427,0.003274242882891092,0.10148259756224526,0.13036924627826668,0.06762450944619802,-0.0,-0.015075412691603982,-0.0,0.12786782371760824,1.3641493433587684,-1.4581904644168444,-2.822339807775613,-2.822339807775613,-4.635732974643129,5.926543712615967,0.0,8.69067809022705,1,-0.006803638295141568,-0.002953900743423681,0.003033916514946143,5.93405818939209,1,0.002254343032836914,0.002086664538894035,0.00909303943024866,-1.4581904644168444,1.5707963267948966,-1.4608119436004563,1,0.0015728875101671312,0.0007380732055918438,0.0019251419807678556,0.040047055999934855
162.30095960699998,8.657672098849943,-0.0,-0.0,-0.03767795718514114,0.12195409231706918,-0.0,-0.0603637292463352,0.21654166530908625,0.0,0.04459436982870102,0.09887617711049179,0.2289272284602903,-0.09672340728697805,0.09887617711049179,0.0,0.0,0.0,0.06930332100668594,0.00558798865543763,0.046641909726643234,0.14336922295990764,0.07343514368276007,-0.0,-0.017838916525933782,-0.0,0.11671509363642557,1.3678145347879562,-1.457640243998236,-2.8254547787861926,-2.8254547787861926,-4.64355906877863,5.921961307525635,0.0,8.69067809022705,1,-0.006601198275421539,-0.0032202637663921196,0.003645014405166129,5.93405818939209,1,0.0036290645599365234,0.002176267635596699,0.009057510089944827,-1.457640243998236,1.5707963267948966,-1.4608119436004563,1,0.0019030197613321143,0.0007865212080049797,0.0021145584024675353,0.03999851800006127
162.40133723600002,8.661729212520882,-0.0,-0.0,-0.05171025702626765,0.23710017604930936,-0.0,-0.05274197658478571,0.2094368273485685,0.0,0.045894209295511246,0.08058929667248682,0.2350099950044095,-0.21177955609660484,0.08058929667248682,0.0,0.0,0.0,0.10354380629596284,0.010154779306825866,0.12308044024362019,0.12778871225135896,0.08196298307545691,-0.0,-0.017423731954427764,-0.0,0.09801302862691459,1.3753194505715314,-1.4569771813585903,-2.832296631930122,-2.832296631930122,-4.659141699211807,5.915125846862793,0.0,8.69067809022705,1,-0.005789775541233767,-0.0035852815651608015,0.004730166578291837,5.93405818939209,1,0.005679702758789062,0.002378437631122605,0.00879651564821997,-1.4569771813585903,1.5707963267948966,-1.4608119436004563,1,0.002300857345119578,0.0008733018887546267,0.002169642477412333,0.040026036999961434
162.50295705100007,8.66558302202025,-0.0,-0.0,-0.04560682462644592,0.15530257426389807,-0.0,-0.06524068001988445,0.24409888765879467,0.0,0.05258416011929512,0.05634032780147316,0.2602179063889604,-0.12645077193833446,0.05634032780147316,0.0,0.0,0.0,0.09198278146025365,0.013356653874626007,0.04947196062991944,0.15633608088895393,0.08810616742366129,-0.0,-0.020890594947766877,-0.0,0.07723092274924004,1.3816026358787115,-1.4565015520674642,-2.8381041879461755,-2.8381041879461755,-4.668909562844576,5.913815498352051,0.0,8.69067809022705,1,-0.005019013641360104,-0.0037938356854962784,0.005016379909616664,5.93405818939209,1,0.006072807312011719,0.0025405229056580615,0.009153171655347209,-1.4565015520674642,1.5707963267948966,-1.4608119436004563,1,0.0025862349197952384,0.0009402726231286731,0.00229466738671615,0.04002200000002176
162.601347959,8.670455266187854,-0.0,-0.0,-0.053260034125963175,0.19078793816639808,-0.0,-0.04681033003329863,0.21159700152793662,0.0,0.05155333876609802,0.07649976035844464,0.23207026225600075,-0.16527771108600808,0.07649976035844464,0.0,0.0,0.0,0.11176975187930341,0.01894402446686724,0.05982144071959833,0.1162509532666108,0.0956335902298247,-0.0,-0.01973341670924835,-0.0,0.09623317706769298,1.392947276016674,-1.4559256937270022,-2.848872969743676,-2.848872969743676,-4.692962983975597,5.912557601928711,0.0,8.69067809022705,1,-0.0040445648078392795,-0.004056200769268055,0.005645164123554794,5.93405818939209,1,0.006450176239013672,0.0027972167550035835,0.009416917923333512,-1.4559256937270022,1.5707963267948966,-1.4608119436004563,1,0.0029317499240724574,0.0010526845073365822,0.00204657792920632,0.04003805499996815
162.70086292100007,8.67419836254151,-0.0,-0.0,-0.04289137279753539,0.1743306259425276,-0.0,-0.04824698817412373,0.22067108881380923,0.0,0.07151726633310318,0.008944186442968422,0.23925714051786218,-0.1477934954285928,0.008944186442968422,0.0,0.0,0.0,0.08957417148949029,0.022051338812291033,0.062436759791527255,0.12004905189790914,0.10086060415515888,-0.0,-0.03096249882994793,-0.0,0.039906685272916353,1.401324856426247,-1.455527294855087,-2.856852151281334,-2.856852151281334,-4.7033931060305205,5.913003444671631,0.0,8.69067809022705,1,-0.003295945537108125,-0.004194863561157893,0.005314968795953483,5.93405818939209,1,0.006316423416137695,0.0029691370775274334,0.010627541122858167,-1.455527294855087,1.5707963267948966,-1.4608119436004563,1,0.0031707892472215616,0.0011354623181273717,0.0020145111232133086,0.040029222000043774
162.80134175500007,8.680831337467376,-0.0,-0.0,-0.03912774215218024,0.19304771665130074,-0.0,-0.04142320603378321,0.21268245582637782,0.0,0.061612941324710846,0.10183770419962503,0.23353821121752444,-0.1672158838805064,0.10183770419962503,0.0,0.0,0.0,0.08329719914706009,0.026932081947220556,0.08262077223061592,0.1053720901117058,0.10749707554254428,-0.0,-0.024674608947503406,-0.0,0.12651231314712844,1.4152874904422017,-1.4551448746342843,-2.870432365076486,-2.870432365076486,-4.728942141745978,5.9134626388549805,0.0,8.69067809022705,1,-0.001969350551934923,-0.004337542687778097,0.005041514336196457,5.93405818939209,1,0.006178665161132813,0.0032259949437486012,0.011083932973990419,-1.4551448746342843,1.5707963267948966,-1.4608119436004563,1,0.003400241379703184,0.0012680819241386752,0.0018048752586048375,0.0399648889999753
162.90088123600003,8.684595189473894,-0.0,-0.0,-0.027812833179301638,-0.04052089828477315,-0.0,-0.04901186429613265,0.2336016762447684,0.0,0.1114606261253357,-0.1680420679368429,0.2273549372836843,0.06724149637614044,-0.1680420679368429,0.0,0.0,0.0,0.058936335773517055,0.029703596548791802,-0.1294374310460632,0.12220565214866855,0.11155298694534435,0.0,-0.05341709203220678,-0.0,-0.11462497590463612,1.4250613342533702,-1.4549905083568546,-2.880051842610225,-2.880051842610225,-4.745189326165799,5.913876056671143,0.0,8.69067809022705,1,-0.0012165801506313302,-0.004393342588351021,0.004586333093097557,5.93405818939209,1,0.00605463981628418,0.0033901305772962506,0.012987369011410626,-1.4549905083568546,1.5707963267948966,-1.4608119436004563,1,0.003492861146161008,0.0013604763967421127,0.0016828218649044741,0.03992388899996513
163.00346827300007,8.687641738309708,-0.0,-0.0,-0.020695543465622912,0.03977254382533795,-0.0,-0.02081466979148928,0.1753419646719796,0.0,0.09754577279090881,-0.0821030749226894,0.17876621577033902,-0.01921717764191081,-0.0821030749226894,0.0,0.0,0.0,0.04253491229781443,0.032940701682111384,-0.0357529398996325,0.059683420655065406,0.1157081283478947,-0.0,-0.0455371607051269,-0.0,-0.03656591421756249,1.4400711658205214,-1.4548299295907439,-2.8949010954112655,-2.8949010954112655,-4.767968654776833,5.917288780212402,0.0,8.69067809022705,1,-0.0006072703834686167,-0.004441063129438214,0.0036868410917450215,5.93405818939209,1,0.00503082275390625,0.003605629617995947,0.01301405257712845,-1.4548299295907439,1.5707963267948966,-1.4608119436004563,1,0.0035892084058274597,0.0015028399258323712,0.0012221094473351614,0.04013607399997454
163.10083073600003,8.689710347244072,-0.0,-0.0,-0.012347636999477385,-0.040579192455354726,-0.0,-0.01705959681972224,0.16802746452651515,0.0,0.09244527667760849,-0.10214510964168427,0.16220936622962465,0.059732915573589125,-0.10214510964168427,0.0,0.0,0.0,0.023306088100049596,0.034265196950944744,-0.09818396882332303,0.05073037114491189,0.11732133420212201,0.0,-0.04286888697576981,-0.0,-0.05927622266591446,1.4493214108560917,-1.4549262184115639,-2.9042476292676556,-2.9042476292676556,-4.77925048317961,5.919196605682373,0.0,8.69067809022705,1,-0.00019354859659586056,-0.0044521701252868695,0.0028917581315187953,5.93405818939209,1,0.004458475112915039,0.003729253558829245,0.012809403046247853,-1.4549262184115639,1.5707963267948966,-1.4608119436004563,1,0.003531435113335446,0.0015973668988529832,0.0008708607794129134,0.03998525999998037
163.20129762500005,8.690736680072797,-0.0,-0.0,0.0012530155494098706,-0.004610576606058804,-0.0,0.012399401176571715,0.10137519413197957,0.0,0.09760262817144394,-0.07004982177058948,0.10016677632470894,0.0162728093042538,-0.07004982177058948,0.0,0.0,0.0,-0.009304265512683136,0.034870862235805634,-0.03019486402160443,-0.01573074600513912,0.11710772786157168,-0.0,-0.046634788567558115,-0.0,-0.023415033203031364,1.4592697875924587,-1.4551951713555094,-2.914464958947968,-2.914464958947968,-4.786725312581804,5.92545747756958,0.0,8.69067809022705,1,1.1717969149316332e-05,-0.004453047765784506,0.0014651337493709075,5.93405818939209,1,0.0025802135467529294,0.003863546027162759,0.013434220984931399,-1.4551951713555094,1.5707963267948966,-1.4608119436004563,1,0.003370063346968166,0.0017349168986403386,0.0001440818377181569,0.039981852000096296
163.30087149500002,8.690365908102299,-0.0,-0.0,0.010951629539073651,-0.1570681515629056,-0.0,0.006887275111989437,0.11173458777457738,0.0,0.12151563912630081,-0.23711775882049652,0.09295251868616473,0.16886341110625713,-0.23711775882049652,0.0,0.0,0.0,-0.032845059761554316,0.03441812831964694,-0.15864667841343033,-0.004666538602609433,0.1164098057453927,0.0,-0.061381748761194094,-0.0,-0.17573601005930242,1.4624113802460492,-1.4556720339681881,-2.9180834142142373,-2.9180834142142373,-4.781018840527528,5.930341720581055,0.0,8.69067809022705,1,-6.243642495036283e-05,-0.00445437623370319,0.0005388695788388797,5.93405818939209,1,0.0011149406433105468,0.0039036946373309706,0.014194089243669137,-1.4556720339681881,1.5707963267948966,-1.4608119436004563,1,0.003083945779360908,0.0018191208159448252,-0.00013694539359331113,0.04005538900003103
163.401317458,8.687490360504416,-0.0,-0.0,0.019848325151632772,-0.12321504870021899,-0.0,0.0233153506518299,0.07063324294330073,0.0,0.10485897213220596,-0.13431818169102383,0.05611396714785788,0.13046925279855712,-0.13431818169102383,0.0,0.0,0.0,-0.05680240444944035,0.03227759552588221,-0.09875281314980543,-0.04276904401903138,0.11345555558670557,0.0,-0.05301519677551079,-0.0,-0.08130298491551304,1.4615387156200512,-1.456453789636907,-2.917992505256958,-2.917992505256958,-4.768669663855568,5.940081596374512,0.0,8.69067809022705,1,-0.0006375459445269627,-0.004479679496081216,-0.0008537241575046597,5.93405818939209,1,-0.0018070220947265625,0.003872048132744095,0.014435284801670452,-1.456453789636907,1.5707963267948966,-1.4608119436004563,1,0.0026148923781295964,0.001929962758986551,-0.0006699790393914164,0.04000416700000642
163.503031458,8.684102249545768,-0.0,-0.0,0.02501701801931188,-0.1181810334974366,-0.0,0.03425913865187389,0.04210525351143718,0.0,0.10212703794240952,-0.12193100607279911,0.02841470731064627,0.12219743638978245,-0.12193100607279911,0.0,0.0,0.0,-0.07162300808526728,0.030047034409964764,-0.07674021352569967,-0.06821436545730315,0.11041831212830382,0.0,-0.05246415491230944,-0.0,-0.06946685116048966,1.4578735241908634,-1.4570109953182877,-2.914884519509151,-2.914884519509151,-4.7557668265423,5.945063591003418,0.0,8.69067809022705,1,-0.0013151681362565172,-0.004526489974992143,-0.0016972366354700368,5.93405818939209,1,-0.0033016204833984375,0.003793128662131319,0.014195271576494231,-1.4570109953182877,1.5707963267948966,-1.4608119436004563,1,0.0022805689693011556,0.001992906438731972,-0.0010208665094788485,0.04001729699996304
163.60164116200008,8.675770590910671,-0.0,-0.0,0.037394316945944917,-0.2660428253174777,-0.0,0.018908076241082386,0.07089585004051385,0.0,0.11826925724744797,-0.2192337266520255,0.04048424687587705,0.2723344124615287,-0.2192337266520255,0.0,0.0,0.0,-0.10555121678839527,0.025343636346133968,-0.18587645335847355,-0.03563207274324555,0.10660942039695562,0.0,-0.06327507498185816,-0.0,-0.15595865167016734,1.449845009631689,-1.4579411887397302,-2.9077861983714195,-2.9077861983714195,-4.738508342075051,5.9525275230407715,0.0,8.69067809022705,1,-0.0029814998632758717,-0.00467227411028471,-0.002929734893401438,5.93405818939209,1,-0.005540800094604492,0.0036002616112491576,0.014751337427706344,-1.4579411887397302,1.5707963267948966,-1.4608119436004563,1,0.001722452916435646,0.0020687672424586382,-0.001079540619287147,0.03998140800001693
163.70081638400006,8.668564443378848,-0.0,-0.0,0.02807066708313856,-0.09269824374945791,-0.0,0.03241715757778248,0.03776507255288115,0.0,0.07519428431987762,-0.006307221468893273,0.02713509606757747,0.09634755658843473,-0.006307221468893273,0.0,0.0,0.0,-0.0890497680164154,0.02213406905983473,-0.025903772720786977,-0.06608710794538289,0.10395715419305414,0.0,-0.03949996932471788,-0.0,0.03319274785582461,1.4430382255489116,-1.4584553545595884,-2.9014935801085002,-2.9014935801085002,-4.728970032538168,5.958227157592773,0.0,8.69067809022705,1,-0.0044227293696405216,-0.004834613160493839,-0.003149157666915891,5.93405818939209,1,-0.007250690460205078,0.003415620264299862,0.013196072307919708,-1.4584553545595884,1.5707963267948966,-1.4608119436004563,1,0.0014139534245207308,0.002108777031654127,-0.0011451673990209611,0.040006943999969735
163.80129018000002,8.661388707430179,-0.0,-0.0,0.030292446340610082,-0.13690836652626862,-0.0,0.01410160965246994,0.07562405594360042,0.0,0.0885813981294632,-0.10463587991428737,0.059906753039910915,0.14447864756588438,-0.10463587991428737,0.0,0.0,0.0,-0.09857739465912292,0.01667821955756,-0.055032150259773344,-0.02606899066769419,0.10174236575261743,0.0,-0.04909975615107892,-0.0,-0.05553612376320845,1.430297322009353,-1.4591992245592953,-2.8894965465686484,-2.8894965465686484,-4.7016189950608185,5.96612024307251,0.0,8.69067809022705,1,-0.0058578765593743755,-0.0051564708044462655,-0.0035011129588069663,5.93405818939209,1,-0.009618616104125977,0.0030612911374347566,0.013305796177689545,-1.4591992245592953,1.5707963267948966,-1.4608119436004563,1,0.0009676314246966022,0.00215338836947296,-0.0008689513542878885,0.03994181500002014
163.90082847600002,8.656437842019157,-0.0,-0.0,0.022374354032026315,0.015536728270082387,-0.0,0.02132126101493686,0.05878369010491955,0.0,0.058504074811935425,0.12381133325007343,0.06014644119987217,-0.00890605180087757,0.12381133325007343,0.0,0.0,0.0,-0.0836085322140361,0.013225708198500306,0.08586703690000998,-0.04185237135609309,0.10069117067002721,-0.0,-0.03252044023080685,-0.0,0.1563317734808803,1.4210470769737835,-1.4594062358953477,-2.880453312869131,-2.880453312869131,-4.690134555302238,5.970925807952881,0.0,8.69067809022705,1,-0.0068480496415787686,-0.0054215212501435885,-0.0033599533553586424,5.93405818939209,1,-0.011060285568237304,0.00277447884286507,0.012589147819296242,-1.4594062358953477,1.5707963267948966,-1.4608119436004563,1,0.0008434246230651698,0.0021768326156937647,-0.0007228013856825705,0.03989783300005456
164.00318308700002,8.649613145520652,-0.0,-0.0,0.015325600400772918,-0.05061923770259929,-0.0,-0.013128616971666885,0.1372881699927243,0.0,0.05788738280534744,0.0440281327455175,0.1308124451754818,0.06556258866728021,0.0440281327455175,0.0,0.0,0.0,-0.07070739555937765,0.008734570681240655,0.01133366020531499,0.035354481270186595,0.10191042711139538,0.0,-0.03417076091676415,-0.0,0.07819889366228165,1.4060372454066314,-1.4594358596562897,-2.865473105062921,-2.865473105062921,-4.665003473999577,5.976978778839111,0.0,8.69067809022705,1,-0.008212988941279776,-0.005887100994358085,-0.002714034917851786,5.93405818939209,1,-0.012876176834106445,0.0022797386234796866,0.01153255282136728,-1.4594358596562897,1.5707963267948966,-1.4608119436004563,1,0.0008256503664999304,0.0022097971951963564,-9.384577418744982e-05,0.04011381500004063
164.10081038400006,8.645107490464754,-0.0,-0.0,0.0062917263924616934,0.05297638774291962,-0.0,-0.01734323283328268,0.149676419091972,0.0,0.03800396993756294,0.14501065887740802,0.15464243463773836,-0.03598951930488401,0.14501065887740802,0.0,0.0,0.0,-0.05213929306988552,0.006362351622057276,0.098718536364234,0.045771277222690886,0.10389251983122452,-0.0,-0.023652949973342715,-0.0,0.16866360885075074,1.3973105991466603,-1.459273438194275,-2.8565840373409355,-2.8565840373409355,-4.656040533924687,5.979285717010498,0.0,8.69067809022705,1,-0.009114119952459277,-0.006242535617903841,-0.002051296705304969,5.93405818939209,1,-0.013568258285522461,0.0019216755243653184,0.010228969409815556,-1.459273438194275,1.5707963267948966,-1.4608119436004563,1,0.0009231032437088337,0.0022336862421660805,0.0003051036911564438,0.03996742600008929
164.20134714300002,8.638968638467325,-0.0,-0.0,-0.005950603283958729,0.04815843862446406,-0.0,-0.03198664818026456,0.18868554873756943,0.0,0.025934569537639618,0.06445863140456347,0.19288246170973014,-0.02679230258746788,0.06445863140456347,0.0,0.0,0.0,-0.02670970324990926,0.003690327941793358,0.07105938015829212,0.07987567021651729,0.10883191122676852,-0.0,-0.017886066512403775,-0.0,0.08234469791696725,1.3843951626819022,-1.4589219236334894,-2.8433170863153916,-2.8433170863153916,-4.637075350339276,5.976588249206543,0.0,8.69067809022705,1,-0.010341890351945084,-0.0068376211746664865,-0.0009118659618513692,5.93405818939209,1,-0.012759017944335937,0.0014005766994748742,0.007482899928494388,-1.4589219236334894,1.5707963267948966,-1.4608119436004563,1,0.0011340119801801496,0.0022757062066021106,0.0009107564586428563,0.04004107399998702
164.300886495,8.636082060810413,-0.0,-0.0,-0.005418605178768578,0.06085900846592524,-0.0,-0.053991079052815825,0.24394541514618162,0.0,0.023691851645708084,0.042115138782606545,0.2492288770633791,-0.03313836628479954,0.042115138782606545,0.0,0.0,0.0,-0.028877289931242254,0.002301900831362085,0.08709685600508825,0.1300942117148452,0.11388507948051044,-0.0,-0.017161172471846533,-0.0,0.059276311254453075,1.3770647798235256,-1.4584972705447294,-2.835562050368255,-2.835562050368255,-4.623655373116657,5.97398567199707,0.0,8.69067809022705,1,-0.01091920588332762,-0.007269218549524473,-0.00035622162375387114,5.93405818939209,1,-0.011978244781494141,0.001076685805711562,0.00599145650174644,-1.4584972705447294,1.5707963267948966,-1.4608119436004563,1,0.001388803833436114,0.0023109148679514384,0.001442934843453518,0.04003107399989858
164.401252569,8.63095428005925,-0.0,-0.0,-0.025430033057058873,0.09549608787063987,-0.0,-0.05795438767329524,0.2628166374423255,0.0,-0.0024385368451476097,0.13339257341681118,0.27193484523777034,-0.06514236456099541,0.13339257341681118,0.0,0.0,0.0,0.015001485323837306,0.0021269484880277073,0.07797850693302232,0.14130042056790584,0.12168697226791517,-0.0,-0.0018681144725690743,-0.0,0.13526068788938025,1.3676400018627568,-1.4573934183851927,-2.8250334202479497,-2.8250334202479497,-4.608661509849265,5.966516017913818,0.0,8.69067809022705,1,-0.011944762033560253,-0.00796637579669046,0.00129996173857243,5.93405818939209,1,-0.009737348556518555,0.0006522684167246069,0.003533019173697881,-1.4573934183851927,1.5707963267948966,-1.4608119436004563,1,0.0020511151291581872,0.002383859008988967,0.0018381020830602586,0.039983871000004
164.503300513,8.628518014722099,-0.0,-0.0,-0.029801721293663562,0.16345951825194774,-0.0,-0.06841748466907227,0.29458499011701655,0.0,0.00027828675229102373,0.11190013564632954,0.31128315131337014,-0.12884925385045543,0.11190013564632954,0.0,0.0,0.0,0.02413175436911776,0.002417355465004361,0.13636791059833261,0.16630399745359364,0.12851729729954262,-0.0,-0.0030268836387212566,-0.0,0.1149270192850508,1.3625785470319727,-1.456670206005889,-2.8192487530378614,-2.8192487530378614,-4.606344172047905,5.960973262786865,0.0,8.69067809022705,1,-0.012432015100990413,-0.00845944296395456,0.0020587160299713014,5.93405818939209,1,-0.008074522018432617,0.0004273839879888642,0.0028806187181993487,-1.456670206005889,1.5707963267948966,-1.4608119436004563,1,0.0024850425567404244,0.0024469477202347647,0.00224325116922238,0.040055870999935905
164.60138049400007,8.623804371815066,-0.0,-0.0,-0.03552851748641914,0.10807478838755627,-0.0,-0.08128941748242192,0.3360163439011173,0.0,-0.0049020955339074135,0.06876382921312989,0.34621539877847307,-0.06871710778512029,0.06876382921312989,0.0,0.0,0.0,0.035584438780786015,0.004054371701445451,0.06766973030626885,0.19718608116651126,0.13916516046256516,-0.0,0.0006129574589598134,-0.0,0.06815087175417008,1.3575170922011894,-1.4555448568137725,-2.813061949014962,-2.813061949014962,-4.600424771834534,5.952018737792969,0.0,8.69067809022705,1,-0.01337474368239704,-0.009243735725810156,0.0032647068221453375,5.93405818939209,1,-0.0053881645202636715,0.00017842515721986564,0.0013292395940694146,-1.4555448568137725,1.5707963267948966,-1.4608119436004563,1,0.00316025207201025,0.002563782812111989,0.002616584527324596,0.04003488800003652
164.700817142,8.620979804325703,-0.0,-0.0,-0.044563156204693644,0.1382712713124378,-0.0,-0.08337555027903495,0.3502857960800149,0.0,-0.002958532888442278,0.05307875364794689,0.3639485682638139,-0.09674979619868763,0.05307875364794689,0.0,0.0,0.0,0.054712500080425594,0.005648038637993763,0.07710438777682682,0.20365803767592525,0.14705873930824082,-0.0,8.86266827774141e-05,-0.0,0.05299012696516948,1.3554226970987964,-1.4546585529437737,-2.81008125004257,-2.81008125004257,-4.598264072564454,5.946689128875732,0.0,8.69067809022705,1,-0.01393965718026955,-0.009794827896925243,0.0040406470908764145,5.93405818939209,1,-0.0037892818450927734,6.706519569590426e-05,0.0009113948989169481,-1.4546585529437737,1.5707963267948966,-1.4608119436004563,1,0.00369203439400958,0.002658464574497392,0.002845786059696808,0.0399991479999926
164.801294902,8.618579849945267,-0.0,-0.0,-0.052604987590853886,0.13209235480925077,-0.0,-0.08006106337221128,0.35630071750889586,0.0,0.0033344679977744818,0.036755079306638384,0.36931810239176927,-0.08945798311022679,0.036755079306638384,0.0,0.0,0.0,0.07218107972632441,0.009208940694711757,0.04995861860442106,0.19847673500895952,0.15831264899935182,-0.0,-0.0017521336891922479,-0.0,0.03850721299583063,1.355248164173597,-1.4534195158460554,-2.8086676800196524,-2.8086676800196524,-4.602817910497297,5.935397148132324,0.0,8.69067809022705,1,-0.01441964805635685,-0.010649478360729573,0.005273720520016357,5.93405818939209,1,-0.0004016876220703125,9.129523532955703e-06,0.0008068032809914254,-1.4534195158460554,1.5707963267948966,-1.4608119436004563,1,0.004435456652640513,0.002825738716280001,0.0028944389902134412,0.03993964800008598
164.900865716,8.61787754149342,-0.0,-0.0,-0.05191367477058295,0.10150284598507608,-0.0,-0.08929535734027952,0.3864382414928471,0.0,0.027860449627041817,-0.06367578873103955,0.39570793425091316,-0.05525009504090557,-0.06367578873103955,0.0,0.0,0.0,0.07000726855428195,0.01168999345229409,0.01888033750056664,0.22040190008013905,0.16657425229820935,-0.0,-0.014793690774561538,-0.0,-0.048882097956478,1.356469894649993,-1.452662531658559,-2.809132426308552,-2.809132426308552,-4.607568768096646,5.930540561676025,0.0,8.69067809022705,1,-0.014560109746726014,-0.011231088365107753,0.005699009047742608,5.93405818939209,1,0.001055288314819336,2.9900532425682137e-05,0.002119109488860901,-1.452662531658559,1.5707963267948966,-1.4608119436004563,1,0.004889647165138333,0.002952869066610918,0.003044808282579872,0.03999270400004207
165.00423629,8.617536352769763,-0.0,-0.0,-0.0650461405990068,0.18777030446129742,-0.0,-0.06738074569483873,0.35029125729245847,0.0,0.014624465256929398,0.08322551368643394,0.3701273460388324,-0.14480124269932937,0.08322551368643394,0.0,0.0,0.0,0.09917110494397754,0.016611612684631658,0.07146073499191434,0.17347187712695109,0.17732797766701067,-0.0,-0.005031580083189452,-0.0,0.08825709376962339,1.3592624214531837,-1.451648330741316,-2.8109107521944994,-2.8109107521944994,-4.611965511672128,5.924042701721191,0.0,8.69067809022705,1,-0.014628347491457562,-0.012112636132735256,0.006772617999721259,5.93405818939209,1,0.003004646301269531,0.0001306885903444614,0.003103163559999651,-1.451648330741316,1.5707963267948966,-1.4608119436004563,1,0.005498167715484214,0.0031646860955873626,0.0028072537336129057,0.04008914799999275
165.10082893900005,8.618000821277974,-0.0,-0.0,-0.06038748109696025,0.1250036320264678,-0.0,-0.0788867162360005,0.3840490729526777,0.0,0.034426379948854446,0.01004274071945136,0.39622724500780754,-0.07825323487973272,0.01004274071945136,0.0,0.0,0.0,0.08832732866655228,0.01980434506837111,0.016149851839299206,0.19983999481677595,0.18476184787731795,-0.0,-0.015371464933570328,-0.0,0.025414205653021688,1.3604841519295796,-1.4511090460701175,-2.811593197999697,-2.811593197999697,-4.608990366408034,5.920478820800781,0.0,8.69067809022705,1,-0.014535453789815378,-0.012694718230800478,0.006991476681179363,5.93405818939209,1,0.004073810577392578,0.00023323494062840313,0.00450022620821625,-1.4511090460701175,1.5707963267948966,-1.4608119436004563,1,0.00582173851820329,0.0033176221995185893,0.002810284326630304,0.03998320400000921
165.20138192000002,8.619349727822321,-0.0,-0.0,-0.07046465950591595,0.15775406568239714,-0.0,-0.05860415300281703,0.349911891370926,0.0,0.03429421782493591,0.003762208562825879,0.3663146580272951,-0.11462219800915809,0.003762208562825879,0.0,0.0,0.0,0.11085377737193199,0.025492684812048916,0.021009145742596057,0.15589599193030976,0.19449499842341383,-0.0,-0.013948225267738614,-0.0,0.017710433830564493,1.3611822836303773,-1.450499639472513,-2.8116819231028902,-2.8116819231028902,-4.608469056397399,5.915610313415527,0.0,8.69067809022705,1,-0.014265672480945924,-0.01355723912212255,0.007746332720757974,5.93405818939209,1,0.00553436279296875,0.0004415107828777413,0.005071302136191732,-1.450499639472513,1.5707963267948966,-1.4608119436004563,1,0.006187382476766023,0.0035601916410560952,0.002510087393138006,0.0399991479999926
165.300835161,8.619330781908145,-0.0,-0.0,-0.062239375604915416,0.06609269244316553,-0.0,-0.06952664547299972,0.37993027233455623,0.0,0.06295710802078247,-0.11725329413593465,0.385120536114929,-0.019935608672587084,-0.11725329413593465,0.0,0.0,0.0,0.09159099207036785,0.02913233123192761,-0.05519145797587948,0.1804323176918625,0.2,0.0,-0.029522881598236655,-0.0,-0.08773041253769799,1.3617058824059756,-1.4502783115250157,-2.811984193930991,-2.811984193930991,-4.611215706870332,5.911934852600098,0.0,8.69067809022705,1,-0.01426946166378116,-0.01412950631113735,0.007791861492897565,5.93405818939209,1,0.006637001037597656,0.0006150807029062224,0.006500223616550835,-1.4502783115250157,1.5707963267948966,-1.4608119436004563,1,0.0063201792452643344,0.003727269965306983,0.0024405951763664534,0.040086481000003005
165.40128704900008,8.619992881084979,-0.0,-0.0,-0.06854722729224963,0.19063764989185347,-0.0,-0.04785530195988646,0.33277558709911276,0.0,0.05305406078696251,0.03782827553782289,0.3533337500612854,-0.149122654191364,0.03782827553782289,0.0,0.0,0.0,0.1041437760265213,0.03455579021749063,0.05167240710294585,0.13315613825568987,0.2,-0.0,-0.0221705737625848,-0.0,0.05999884930040769,1.3636257445831692,-1.4499280057443087,-2.813553750327478,-2.813553750327478,-4.620606933177186,5.909767150878906,0.0,8.69067809022705,1,-0.014137041828414354,-0.014977442238927214,0.007905336787147069,5.93405818939209,1,0.007287311553955077,0.0008972491108543788,0.007918543851178387,-1.4499280057443087,1.5707963267948966,-1.4608119436004563,1,0.0065303627136885645,0.003985918621424811,0.002153934093950099,0.0399912589999758
165.50317099400002,8.621177359257194,-0.0,-0.0,-0.06619427678752086,0.11988355079174962,-0.0,-0.049554775205085035,0.33691128447359675,0.0,0.07723976671695709,-0.044473072626880585,0.3489304032112027,-0.07828699170969788,-0.044473072626880585,0.0,0.0,0.0,0.09841797320217055,0.03823006030574442,-0.017049324988084223,0.13729177107877558,0.2,-0.0,-0.03515879521891481,-0.0,-0.009314277407965773,1.365196540909965,-1.4496439727638182,-2.814840513673783,-2.814840513673783,-4.621114302377932,5.908411026000977,0.0,8.69067809022705,1,-0.013900146193971353,-0.015536409475854352,0.007977721246927812,5.93405818939209,1,0.007694149017333984,0.0011025685842096537,0.009845057083888768,-1.4496439727638182,1.5707963267948966,-1.4608119436004563,1,0.006700782501982872,0.004163351921787748,0.0019864408614968794,0.03997759300000325
165.60132258600004,8.624003862788076,-0.0,-0.0,-0.06811672764624123,0.19898049365419823,-0.0,-0.037975466479349115,0.3120163828719721,0.0,0.07139531522989273,0.027163476915088722,0.3338291723694538,-0.1597045513143034,0.027163476915088722,0.0,0.0,0.0,0.1021246830551874,0.043625562990763395,0.053063024114697425,0.11231633223987238,0.2,-0.0,-0.030400466452196833,-0.0,0.057563943367285555,1.3669418701619591,-1.4493195068351334,-2.8162613769970926,-2.8162613769970926,-4.622604632757461,5.906614780426025,0.0,8.69067809022705,1,-0.013334845487795023,-0.016350745737073895,0.007989174058258323,5.93405818939209,1,0.008233022689819335,0.0014323290290227614,0.011062519424055908,-1.4493195068351334,1.5707963267948966,-1.4608119436004563,1,0.006895462059193713,0.004436301118487897,0.0017456486338203508,0.03995616700001392
165.700920753,8.625823192433932,-0.0,-0.0,-0.07032245053082552,0.16271070975982763,-0.0,-0.03154825767695975,0.29785285390902577,0.0,0.08572757989168167,-0.05515519161306326,0.31538870536410424,-0.12538365994439837,-0.05515519161306326,0.0,0.0,0.0,0.1070407126618735,0.04746442872513366,0.008090183146361762,0.0981100526412891,0.2,-0.0,-0.03806061707133663,-0.0,-0.017094574541726627,1.3674654689375574,-1.4492094807002622,-2.81667494963782,-2.81667494963782,-4.623459693180305,5.904720783233643,0.0,8.69067809022705,1,-0.012970979558623696,-0.01687270650572752,0.008176104925286375,5.93405818939209,1,0.00880122184753418,0.0016639750241468545,0.011828021234439587,-1.4492094807002622,1.5707963267948966,-1.4608119436004563,1,0.006961477740116439,0.004621312112471787,0.0014644309437652507,0.04000998200001504
165.80138779000004,8.629081915631673,-0.0,-0.0,-0.06569101472616028,0.20555276631795774,-0.0,-0.020462060594640924,0.27354087424776674,0.0,0.07605493068695068,0.04347341733668991,0.29646514574813737,-0.17083608220084284,0.04347341733668991,0.0,0.0,0.0,0.09622543385001,0.05280404229320097,0.05647476868336765,0.07369664673167549,0.2,-0.0,-0.03166511716779849,-0.0,0.0751385345044884,1.3678145347879562,-1.4491349730778487,-2.8169495078658047,-2.8169495078658047,-4.620873307568599,5.90411376953125,0.0,8.69067809022705,1,-0.012319234919075585,-0.01762661852331536,0.007993672284417028,5.93405818939209,1,0.008983325958251952,0.0020286807467434945,0.012267728702291078,-1.4491349730778487,1.5707963267948966,-1.4608119436004563,1,0.007006182313564579,0.0049009788025595295,0.0011292540763601846,0.03997707400003492
165.900858105,8.63067264334084,-0.0,-0.0,-0.06602882265479733,0.1490949573872628,-0.0,-0.013081056613378337,0.25709482282962304,0.0,0.09301355481147766,-0.0391624540527074,0.27328105535258695,-0.11680975571193218,-0.0391624540527074,0.0,0.0,0.0,0.0965425265591613,0.05634311979953028,-0.0038105152409669205,0.05719489924347342,0.2,-0.0,-0.040977891028489415,-0.0,0.001815436975782017,1.3678145347879562,-1.4492017577598129,-2.817016292547769,-2.817016292547769,-4.62610527500557,5.903298377990723,0.0,8.69067809022705,1,-0.012001089377242025,-0.01810980835766214,0.00796504169790743,5.93405818939209,1,0.009227943420410155,0.0022733905896844377,0.013215735753900712,-1.4492017577598129,1.5707963267948966,-1.4608119436004563,1,0.006966111504386063,0.005086979572577324,0.0008635337839643758,0.04026755599988974
166.00340290100007,8.63312559761688,-0.0,-0.0,-0.06365484950093914,0.2151241551759949,-0.0,-0.008402137767334422,0.24662175455757032,0.0,0.08192683756351471,0.03907192614397265,0.27086322658468037,-0.1836676467028858,0.03907192614397265,0.0,0.0,0.0,0.09021329112761367,0.061165413032424176,0.06373727368571168,0.04668370625849465,0.2,-0.0,-0.03417525892875354,-0.0,0.07324718507272619,1.3686871994139533,-1.4493711632855422,-2.8180583626994955,-2.8180583626994955,-4.630068523503283,5.904049396514893,0.0,8.69067809022705,1,-0.01151049852203414,-0.018809442847871758,0.007671133290609335,5.93405818939209,1,0.009002637863159179,0.002636734179343049,0.013328700639756585,-1.4493711632855422,1.5707963267948966,-1.4608119436004563,1,0.00686446818894848,0.0053625683689887535,0.0005906921558622695,0.04016738899997563
166.100835716,8.635121020467121,-0.0,-0.0,-0.06324757156078908,0.18557007094387604,-0.0,-0.007507354659313816,0.2446284553961569,0.0,0.10043339431285858,-0.07219421039991182,0.26528646644309956,-0.1546040851392968,-0.07219421039991182,0.0,0.0,0.0,0.08895277555096456,0.06427130424132971,0.03233946427444279,0.04468344269163567,0.2,-0.0,-0.044863811843880115,-0.0,-0.027330398556031706,1.3709561274415458,-1.4494898012598285,-2.8204459287013743,-2.8204459287013743,-4.637687695405432,5.904778003692627,0.0,8.69067809022705,1,-0.011111413951985939,-0.01925793109688449,0.007554853283974322,5.93405818939209,1,0.008784055709838867,0.0028746865016802082,0.01400163236153931,-1.4494898012598285,1.5707963267948966,-1.4608119436004563,1,0.00679328540437667,0.005544063730654761,0.0004659519745800531,0.03999446299997089
166.20133554900008,8.637758492358104,-0.0,-0.0,-0.05735344735928495,0.15951365368004608,-0.0,-2.6653654989137326e-05,0.22802185326213273,0.0,0.08341372758150101,0.04503073921626265,0.24561900683729038,-0.13080471992905446,0.04503073921626265,0.0,0.0,0.0,0.07514236976508532,0.0687588669344157,0.015612416898299515,0.028022030238485977,0.2,-0.0,-0.0344236635729441,-0.0,0.07945440278920675,1.3754939834967317,-1.4497178689860588,-2.8252118524827905,-2.8252118524827905,-4.646453554211121,5.903987884521484,0.0,8.69067809022705,1,-0.010583919573789303,-0.019903363227494145,0.0072894580624918125,5.93405818939209,1,0.00902109146118164,0.0032390747245310014,0.013780788774214865,-1.4497178689860588,1.5707963267948966,-1.4608119436004563,1,0.0066564447686384915,0.005812087673623383,0.00024210037478806937,0.040036611000004996
166.3009981790001,8.639878993466656,-0.0,-0.0,-0.05453755256536681,0.14871821624971424,-0.0,0.0023577510021784553,0.22274469412154083,0.0,0.10114636272192001,-0.05344543807775215,0.23905186427751238,-0.12077463636559355,-0.05344543807775215,0.0,0.0,0.0,0.06815897863760842,0.07123209047286072,0.009326503728638032,0.022729811277774774,0.2,-0.0,-0.04470998790403937,-0.0,-0.008735450173712777,1.3782865102999224,-1.449922540791319,-2.8282090510912417,-2.8282090510912417,-4.650733359856585,5.905146598815918,0.0,8.69067809022705,1,-0.01015981935207897,-0.020313839240914358,0.006917459953812159,5.93405818939209,1,0.008673477172851562,0.003474869705996859,0.014481369336339315,-1.449922540791319,1.5707963267948966,-1.4608119436004563,1,0.006533641685482383,0.005986958713309147,0.00016888300237545784,0.04003985199994986
166.401321993,8.642558719813303,-0.0,-0.0,-0.05142464511651783,0.16835794369344767,-0.0,0.009061525131255924,0.20734625639501558,0.0,0.08275064080953598,0.027241408712322543,0.22606618933026404,-0.14223552751477683,0.027241408712322543,0.0,0.0,0.0,0.06050998686621716,0.07494285984268756,0.03289559618271257,0.0072923388308778715,0.2,-0.0,-0.03364760492235036,-0.0,0.0608890136346729,1.3823007675795091,-1.4503989825329673,-2.8326997501124764,-2.8326997501124764,-4.6557560789414145,5.903806209564209,0.0,8.69067809022705,1,-0.009623874082749496,-0.020901752804596635,0.006605521255472465,5.93405818939209,1,0.009075593948364257,0.0038351258614453022,0.013760579462475817,-1.4503989825329673,1.5707963267948966,-1.4608119436004563,1,0.0062477766404934075,0.006240655610174509,-0.00011220765083114308,0.04002135100006399
166.50282260400002,8.644432425501126,-0.0,-0.0,-0.05595063265187016,0.19610810941580958,-0.0,0.019272564951390198,0.18407562066109956,0.0,0.08949321508407593,-0.038541018171992576,0.20623355104510196,-0.17265557368280782,-0.038541018171992576,0.0,0.0,0.0,0.07026899090551397,0.07725934718366169,0.04853680358259678,-0.015762445824063862,0.19971332582565252,-0.0,-0.037409458547851396,-0.0,-0.0011315596241411804,1.3854423602330987,-1.450766495928115,-2.836208856161214,-2.836208856161214,-4.66453087119231,5.902340888977051,0.0,8.69067809022705,1,-0.009249132945184969,-0.021274753719775802,0.006513704424687868,5.93405818939209,1,0.009515190124511718,0.004086193695326357,0.013542733684485523,-1.450766495928115,1.5707963267948966,-1.4608119436004563,1,0.006027268603404767,0.006402739072834345,-0.00032219082669612223,0.04001175900009457
166.60139916000003,8.647101743648554,-0.0,-0.0,-0.04962866129783167,0.22898465257353806,-0.0,0.029713015159598545,0.15924330759808533,0.0,0.07485835254192352,0.06398775702789711,0.18537031276031504,-0.20839925449997498,0.06398775702789711,0.0,0.0,0.0,0.05538688458107254,0.0802306248167054,0.09326504384860429,-0.03968896689289044,0.19876174137951144,-0.0,-0.028784459936398308,-0.0,0.09277221696429541,1.3896311504378858,-1.451468682030286,-2.8410998324681715,-2.8410998324681715,-4.666562253580315,5.902237415313721,0.0,8.69067809022705,1,-0.008715269315699459,-0.021806335836518115,0.006068800482146149,5.93405818939209,1,0.009546232223510741,0.004469712899947052,0.01286830752446855,-1.451468682030286,1.5707963267948966,-1.4608119436004563,1,0.0056059569421021745,0.006632564745500809,-0.0005659460247728214,0.04009825900004671
166.700825345,8.648851595541219,-0.0,-0.0,-0.047089357331557495,0.0884352112590322,-0.0,0.027501117762971903,0.16216537498906253,0.0,0.08779150247573853,-0.03419935322876677,0.17151335018498068,-0.06856796733240027,-0.03419935322876677,0.0,0.0,0.0,0.04963879865096953,0.08223479122414958,-0.043525825078759794,-0.03544250830829669,0.19745815128414887,-0.0,-0.036216106806194096,-0.0,0.002016753577427327,1.392598210166275,-1.451856666146797,-2.844454876313072,-2.844454876313072,-4.674282986485379,5.901959419250488,0.0,8.69067809022705,1,-0.008365298937166444,-0.022144742805729936,0.005983774707234121,5.93405818939209,1,0.009629631042480468,0.004729000367351219,0.013072693055583345,-1.451856666146797,1.5707963267948966,-1.4608119436004563,1,0.005373166472195523,0.0067772848098914,-0.0007595645683407884,0.04000131500004045
166.80131034500005,8.650987908396337,-0.0,-0.0,-0.04850166644987713,0.27833269697810453,-0.0,0.04144356447600435,0.12915936846244555,0.0,0.06342057883739471,0.08903792366884129,0.16115829653291652,-0.2611115396288178,0.08903792366884129,0.0,0.0,0.0,0.05155579982317358,0.08441919750831081,0.1421591594273222,-0.06660302589043067,0.19553004147456987,-0.0,-0.02134804963449682,-0.0,0.11038597330333812,1.3960888686702644,-1.452298533012234,-2.8483874016824986,-2.8483874016824986,-4.677010204957653,5.898216724395752,0.0,8.69067809022705,1,-0.007938036366142853,-0.022630326372329396,0.00550115075367402,5.93405818939209,1,0.010752439498901367,0.005151790130363603,0.011936266483968375,-1.452298533012234,1.5707963267948966,-1.4608119436004563,1,0.005108046352933382,0.006984803393921169,-0.0009233879483186808,0.039927870000042276
166.90097858600006,8.652148110799867,-0.0,-0.0,-0.03285879872393276,0.06851488126299968,-0.0,0.016544737080972316,0.18328089679336337,0.0,0.07790951430797577,-0.06225598620712938,0.1900806302722694,-0.046427686558338066,-0.06225598620712938,0.0,0.0,0.0,0.015660834981024878,0.08528302830407189,-0.03246061905853858,-0.0116654625490629,0.19488352636976766,-0.0,-0.02964285324547648,-0.0,-0.032613132961652906,1.397136066221461,-1.452618735311961,-2.8497548015334218,-2.8497548015334218,-4.674353546952126,5.895300388336182,0.0,8.69067809022705,1,-0.007705995885436679,-0.02294171267647724,0.004907471192992461,5.93405818939209,1,0.01162734031677246,0.005461779324797238,0.0114156392572786,-1.452618735311961,1.5707963267948966,-1.4608119436004563,1,0.0049159249730971405,0.007116956067269663,-0.0007906269362412586,0.040002128999958586
167.00406251100003,8.65368710382139,-0.0,-0.0,-0.036418168389703624,0.09485190245004979,-0.0,0.03000686945091733,0.15070606708819104,0.0,0.05588693916797638,0.04455185738869018,0.16080150933822282,-0.07649886698594655,0.04455185738869018,0.0,0.0,0.0,0.023008765191165757,0.087103808548758,-0.01536472083585845,-0.04186078198998507,0.19244056819796856,-0.0,-0.01590618666815331,-0.0,0.06045804405684349,1.3973105991466603,-1.4530987467941265,-2.850409345940787,-2.850409345940787,-4.670897365550417,5.888735771179199,0.0,8.69067809022705,1,-0.007398197281132113,-0.023392180518099076,0.004830739041875637,5.93405818939209,1,0.013596725463867186,0.005981521629830843,0.009798380960689499,-1.4530987467941265,1.5707963267948966,-1.4608119436004563,1,0.004627918083797855,0.007305444124243591,-0.0009541209343900538,0.04012738900007662
167.10086951100004,8.655388394765364,-0.0,-0.0,-0.038118807678994615,0.15091901030971058,-0.0,0.03441566456172826,0.13937828036118102,0.0,0.05556444451212883,0.005996828178851953,0.1560963872573461,-0.1335543731762728,0.005996828178851953,0.0,0.0,0.0,0.026376429853628633,0.08790069143447246,0.03650504502187152,-0.05177353955225114,0.19100025142929958,-0.0,-0.015340821832463214,-0.0,0.021337650011315167,1.396787000371062,-1.4533941308079,-2.850181131178962,-2.850181131178962,-4.671336357396239,5.885914325714111,0.0,8.69067809022705,1,-0.007057939092337407,-0.023677867615092545,0.00460628532553926,5.93405818939209,1,0.014443159103393555,0.006363316256765575,0.00918993276453101,-1.4533941308079,1.5707963267948966,-1.4608119436004563,1,0.004450687675533826,0.007425144636705594,-0.0009935948197162209,0.03998059299999568
167.201247437,8.657223170844375,-0.0,-0.0,-0.028892517340494642,0.14448027660679832,-0.0,0.032277511484634,0.1413938323738463,0.0,0.02544458396732807,0.1120691510335801,0.1572802989529426,-0.12700265242510997,0.1120691510335801,0.0,0.0,0.0,0.0046592429413532845,0.08850554338925314,0.051195147098352926,-0.04740288677091052,0.1886889965480449,-0.0,0.0027154764092192085,-0.0,0.1093536746243609,1.3955652698946661,-1.4538949028160226,-2.849460172710689,-2.849460172710689,-4.669534461394164,5.880277633666992,0.0,8.69067809022705,1,-0.0066909838765351285,-0.02408637245455744,0.004002676691213057,5.93405818939209,1,0.016134166717529295,0.006984653390737582,0.006851557874426544,-1.4538949028160226,1.5707963267948966,-1.4608119436004563,1,0.004150224470660202,0.007594567138545994,-0.0010140468386224295,0.03998129599995082
167.300866585,8.658806458304216,-0.0,-0.0,-0.021774381732510367,-0.06080296232159145,-0.0,0.023966248722946844,0.15761439728154084,0.0,0.05073736980557442,-0.0954194823280385,0.14946378125187712,0.07873929483679215,-0.0954194823280385,0.0,0.0,0.0,-0.0115473170854948,0.08871211593739613,-0.13803409607549297,-0.02927382831415582,0.18682795744547265,0.0,-0.01206993672142727,-0.0,-0.08334954560661123,1.3953907369694667,-1.4541095825476729,-2.84950031951714,-2.84950031951714,-4.67034649458497,5.877892017364502,0.0,8.69067809022705,1,-0.006374326384566942,-0.024344386275567644,0.003695550434217495,5.93405818939209,1,0.016849851608276366,0.007431353963979279,0.006339603030939985,-1.4541095825476729,1.5707963267948966,-1.4608119436004563,1,0.004021416631670061,0.007702514372182547,-0.0010639678782493169,0.04006322200007162
167.401324456,8.662077222365497,-0.0,-0.0,-0.02952276771089158,0.11897299826941746,-0.0,0.05166255517645087,0.09192716886111367,0.0,0.02114255726337433,0.08108078481868672,0.10509458480882539,-0.10751886781349179,0.08108078481868672,0.0,0.0,0.0,0.005538114673238275,0.08864304153245446,0.02448371509384867,-0.09122748777971328,0.1829785762877348,-0.0,0.0061654835232825165,-0.0,0.0749153012954042,1.3952162040442673,-1.4546543071448435,-2.8498705111891107,-2.8498705111891107,-4.671787321616269,5.872983932495117,0.0,8.69067809022705,1,-0.0057201735723108275,-0.024698438833492195,0.0034131695463833827,5.93405818939209,1,0.018322277069091796,0.0081485027961948,0.004947583270225258,-1.4546543071448435,1.5707963267948966,-1.4608119436004563,1,0.003694581873367708,0.007854221822135502,-0.001353288418922015,0.04003125999997792
167.50307927000006,8.663407505435352,-0.0,-0.0,-0.017870404792388606,0.07255130054230935,-0.0,0.034470247626503144,0.12785930639953066,0.0,0.03604940325021744,-0.01960273676079515,0.13538626822527763,-0.05729094011606674,-0.01960273676079515,0.0,0.0,0.0,-0.021245357602479083,0.08796934700112581,0.005690159800996711,-0.05340262494129783,0.18119082799286834,-0.0,-0.0018979361026179918,-0.0,-0.01770480065817716,1.3950416711190678,-1.4549858289573152,-2.850027500076383,-2.850027500076383,-4.670229079722451,5.869922161102295,0.0,8.69067809022705,1,-0.005454116958339839,-0.024919043597614106,0.002845775035165759,5.93405818939209,1,0.019240808486938477,0.008657493959504815,0.004987873966077493,-1.4549858289573152,1.5707963267948966,-1.4608119436004563,1,0.0034956687858846533,0.007948603740298035,-0.0012479453275421886,0.04002818499998284
167.60131571500006,8.665754400949396,-0.0,-0.0,-0.017078482527847855,0.07479777651053743,-0.0,0.03866269873293295,0.11440210752299781,0.0,0.010545283555984497,0.09476275321785381,0.12225305289884293,-0.06112888542691232,0.09476275321785381,0.0,0.0,0.0,-0.02312633341889279,0.08733934361899066,0.010412270737157475,-0.06308445680933478,0.17741036782430353,-0.0,0.014111934328673447,-0.0,0.08065081888918037,1.3950416711190678,-1.4554071562784432,-2.850448827397511,-2.850448827397511,-4.670449556283288,5.863712787628174,0.0,8.69067809022705,1,-0.004984737855530952,-0.025227491465057955,0.0026217770568806925,5.93405818939209,1,0.021103620529174805,0.009482542604833518,0.0034790109697652553,-1.4554071562784432,1.5707963267948966,-1.4608119436004563,1,0.003242872393207863,0.00808172880399985,-0.0013366555594269316,0.04000592599993524
167.700879363,8.667439507625573,-0.0,-0.0,-0.020691563317942897,0.0762967415349469,-0.0,0.043135378311640736,0.10135212020925922,0.0,0.013263124972581863,0.02533580691098259,0.10943954220193651,-0.0641594236444903,0.02533580691098259,0.0,0.0,0.0,-0.015072333002772872,0.08673689171891551,0.0044175103240667556,-0.07341452407595686,0.1746636682666591,0.0,0.012604327979203862,-0.0,0.01273147893177873,1.3952162040442673,-1.4557639679753462,-2.8509801720196135,-2.8509801720196135,-4.671691089828399,5.862547874450684,0.0,8.69067809022705,1,-0.004647716520295476,-0.025416319144795724,0.002521411891342452,5.93405818939209,1,0.021453094482421876,0.010054394060534008,0.0027628497282990824,-1.4557639679753462,1.5707963267948966,-1.4608119436004563,1,0.003028785375066034,0.008163714082792067,-0.0014273593625613883,0.03999294400000508
167.80136671500009,8.669294558908495,-0.0,-0.0,-0.014475124393285606,0.09657400109541817,-0.0,0.05455300407153205,0.07121039776240606,0.0,0.00917606521397829,0.05946477971175075,0.08177384286891895,-0.0878094360505024,0.05946477971175075,0.0,0.0,0.0,-0.029788362723661917,0.08500194225473501,0.04101713754821133,-0.09928800895732878,0.17040731954827043,-0.0,0.015760439714244543,-0.0,0.043704339997506204,1.3936454077174716,-1.456340160861647,-2.8499855685791187,-2.8499855685791187,-4.66529069103534,5.859760284423828,0.0,8.69067809022705,1,-0.004276706263711106,-0.02568095859151879,0.0019423755875525087,5.93405818939209,1,0.022289371490478514,0.010940463033531229,0.0022136302137094528,-1.456340160861647,1.5707963267948966,-1.4608119436004563,1,0.002683069643285529,0.008275799187245067,-0.001536777921420709,0.040003851999927065
167.900853696,8.670912871742166,-0.0,-0.0,-0.003511615015643373,-0.04514469867150398,-0.0,0.03370944961700521,0.11469738661389618,0.0,0.01430811733007431,0.007401683371395153,0.10881487253679702,0.057903867133371,0.007401683371395153,0.0,0.0,0.0,-0.054656202085883024,0.08342437217484663,-0.07404391920582319,-0.05352608570119769,0.16820982039502558,0.0,0.013184356644189878,-0.0,-0.005782673272794725,1.3920746113906777,-1.4567503573637213,-2.848824968754399,-2.848824968754399,-4.6625098008538455,5.8585524559021,0.0,8.69067809022705,1,-0.003953043696976977,-0.025842137094224393,0.001439837554702076,5.93405818939209,1,0.02265172004699707,0.011543059204682151,0.0020872658187115543,-1.4567503573637213,1.5707963267948966,-1.4608119436004563,1,0.0024369517420410156,0.008342271419154479,-0.0013998124992801368,0.03997503699997651
168.00315515900002,8.672400509058095,-0.0,-0.0,-0.006769559879650384,0.019269885533454618,-0.0,0.03705204999058941,0.10268161175879333,0.0,-0.0025194291956722736,0.07242061640932287,0.10420294771174032,-0.007522471006279893,0.07242061640932287,0.0,0.0,0.0,-0.04762703002153742,0.08138228645281864,-0.014643672443871584,-0.061516567876933013,0.1641692573009226,-0.0,0.023822715829354458,-0.0,0.04859790057996842,1.389282084587486,-1.4573532220979455,-2.8466353066854317,-2.8466353066854317,-4.6600206873715235,5.854608058929443,0.0,8.69067809022705,1,-0.0036555162337911897,-0.026066413706793242,0.0013037200511443105,5.93405818939209,1,0.023835039138793944,0.012482970274251451,0.0008670877735397621,-1.4573532220979455,1.5707963267948966,-1.4608119436004563,1,0.002075232901506485,0.008429844093497568,-0.0014151033121114615,0.04014761100006581
168.100869548,8.67300294806314,-0.0,-0.0,-0.010280884339509511,0.08477976637225693,-0.0,0.03960034640241422,0.0945447231353018,0.0,0.0006337385857477784,0.005474679106288686,0.10350398805309018,-0.0735747097579807,0.005474679106288686,0.0,0.0,0.0,-0.0403141764678637,0.07970488514373993,0.04520824518604466,-0.0674257304360182,0.16192351174694777,-0.0,0.02262133754209146,-0.0,-0.017146658435802774,1.3866640907094947,-1.457762278699897,-2.8444263694093914,-2.8444263694093914,-4.653962306953259,5.850712299346924,0.0,8.69067809022705,1,-0.0035350284327822835,-0.026208761683517212,0.001138280109579216,5.93405818939209,1,0.025003767013549803,0.013144550560790098,0.00018765024822697544,-1.457762278699897,1.5707963267948966,-1.4608119436004563,1,0.001829798940335614,0.00848006100248558,-0.001357572829506155,0.039930055000013454
168.20130128900007,8.67369951479333,-0.0,-0.0,-0.00101856780112046,0.08809533333552078,-0.0,0.02787650646719631,0.11793976082499055,0.0,-0.02677411586046219,0.16160059769162047,0.12708923019245608,-0.07428931624427164,0.16160059769162047,0.0,0.0,0.0,-0.062107956897062874,0.07658612378971227,0.0735275738057861,-0.04154399183201598,0.159480479069785,-0.0,0.0401407412905587,-0.0,0.12145985640106177,1.380206372477116,-1.4582265052363332,-2.8384328777134495,-2.8384328777134495,-4.640055212488918,5.842901706695557,0.0,8.69067809022705,1,-0.0033957150867440335,-0.02641472746364087,0.0005609852505995014,5.93405818939209,1,0.02734694480895996,0.014207303984295608,-0.0014271291694532484,-1.4582265052363332,1.5707963267948966,-1.4608119436004563,1,0.0015512630184738362,0.008545420283727146,-0.0011038094859210225,0.04002607400002489
168.30086895500006,8.674061706214761,-0.0,-0.0,-0.005847877698083224,-0.02388576555733588,-0.0,0.026536557786948023,0.11915854170607604,0.0,-0.02303391508758068,0.08297243223379344,0.11572952234654446,0.03709400915537896,0.08297243223379344,0.0,0.0,0.0,-0.05127758603240961,0.07485976763165302,-0.04754913045029225,-0.03869691531316779,0.1578375666064566,0.0,0.03878501860609757,-0.0,0.044187413627695876,1.3754939834967317,-1.45845048826802,-2.8339444717647515,-2.8339444717647515,-4.633091881927148,5.838160991668701,0.0,8.69067809022705,1,-0.0033232768024578974,-0.026548148423355313,0.0007155538766347149,5.93405818939209,1,0.0287691593170166,0.014966609594727665,-0.002127986322495651,-1.45845048826802,1.5707963267948966,-1.4608119436004563,1,0.0014168731994617545,0.008583899515027301,-0.0010537218880718468,0.040156869999918854
168.40138256600005,8.67514484474669,-0.0,-0.0,-0.008889385136389715,0.09328538934664704,-0.0,0.020419589262176508,0.13189999324751728,0.0,-0.040807295590639114,0.12595308692701088,0.14149248378073698,-0.07797210474142988,0.12595308692701088,0.0,0.0,0.0,-0.04458072003290439,0.07197748558435853,0.06584056008754328,-0.02503644334787727,0.1569155127265109,-0.0,0.05034361455110598,-0.0,0.0756094723759049,1.368163600638355,-1.4588890757306405,-2.8270526763689956,-2.8270526763689956,-4.626261836596075,5.831060409545898,0.0,8.69067809022705,1,-0.0031066490960721897,-0.02673956203769874,0.0006928623460610382,5.93405818939209,1,0.03089933395385742,0.016173287186700303,-0.003973892479353537,-1.4588890757306405,1.5707963267948966,-1.4608119436004563,1,0.0011537207218894618,0.00863293203066391,-0.0007472650121392585,0.040062259000023914
168.50636741800008,8.676346656611225,-0.0,-0.0,-0.008460709263751734,-0.0011760737776835262,-0.0,0.00835632346406812,0.1587757539308386,0.0,-0.026642175391316414,0.02766986720154263,0.15765313467356537,0.018884181566470547,0.02766986720154263,0.0,0.0,0.0,-0.0447536167889501,0.07045845307568915,-0.02688895816860741,0.0018904474530057425,0.15687715783807218,-0.0,0.043257009624329025,-0.0,-0.015587142422786394,1.3646729421343657,-1.4589882265601075,-2.823661168694473,-2.823661168694473,-4.624016995748171,5.825263500213623,0.0,8.69067809022705,1,-0.0028662867231652456,-0.02685645805736956,0.000919482430896665,5.93405818939209,1,0.03263840675354004,0.017033997900663057,-0.004219564004971127,-1.4589882265601075,1.5707963267948966,-1.4608119436004563,1,0.0010942302242092693,0.00866229654512266,-0.0005409090084430185,0.04001696299997093
168.601254714,8.679465809601181,-0.0,-0.0,-0.013017653213230892,0.10824748393323244,-0.0,0.0061501591984124675,0.16549176542661234,0.0,-0.05321613699197769,0.1580145727395774,0.17653672490322214,-0.08910570667660046,0.1580145727395774,0.0,0.0,0.0,-0.03328572067193987,0.06821330587017124,0.07331554081033202,0.007548081373608433,0.15793445990932878,-0.0,0.06099888584766582,-0.0,0.09701568689191158,1.36065868485478,-1.4589820749545748,-2.8196407598093547,-2.8196407598093547,-4.621927791161303,5.814950466156006,0.0,8.69067809022705,1,-0.0022424561251739306,-0.027001323206754024,0.0010962530859971262,5.93405818939209,1,0.03573231697082519,0.01842366434383986,-0.005707308560533029,-1.4589820749545748,1.5707963267948966,-1.4608119436004563,1,0.0010979211875289162,0.008705866729032034,-0.00022268263923555894,0.03998551899996983
168.700839492,8.680372650575217,-0.0,-0.0,-0.009733309853001576,0.02103224633899914,-0.0,-0.005109067808176721,0.19199328845986907,0.0,-0.029400257393717766,0.004213868449030399,0.19314114104780045,0.0005271000403063268,0.004213868449030399,0.0,0.0,0.0,-0.04014537828044467,0.06680637002032393,-0.005631752480750915,0.03285544578058924,0.1591435714817217,-0.0,0.04846952351131467,-0.0,-0.04425565506228427,1.3582152239019871,-1.458955538917002,-2.8171707628189893,-2.8171707628189893,-4.615379568885069,5.808999538421631,0.0,8.69067809022705,1,-0.002061087930366767,-0.027085353504979284,0.0011652323639605303,5.93405818939209,1,0.03751759529113769,0.019413793436808227,-0.005549106936139224,-1.458955538917002,1.5707963267948966,-1.4608119436004563,1,0.0011138428100726293,0.008735269659846804,-2.3886741464681897e-05,0.04003059299998313
168.80150060300002,8.683138813458628,-0.0,-0.0,-0.011135357408870504,0.0659437449913492,-0.0,-0.0028252021295454505,0.18937139694553015,0.0,-0.042763397097587585,0.15464187288383568,0.19555545238436844,-0.04436404543468315,0.15464187288383568,0.0,0.0,0.0,-0.035828797430535825,0.0648759087430349,0.03689571445283701,0.028434930333883456,0.16094008968345755,-0.0,0.05913629337948442,-0.0,0.09550557950435125,1.3536773678468021,-1.4587899322273272,-2.8124673000741294,-2.8124673000741294,-4.608558469576803,5.80032205581665,0.0,8.69067809022705,1,-0.001507855353684562,-0.02718503471902345,0.0012717156499575907,5.93405818939209,1,0.040120840072631836,0.020990112534263076,-0.005313860738675121,-1.4587899322273272,1.5707963267948966,-1.4608119436004563,1,0.001213206823877444,0.008782220018130638,0.0001043393620298552,0.040050833000009334
168.90086554700008,8.684410472463076,-0.0,-0.0,-0.003376755990831084,0.0017670293761079161,-0.0,-0.012150262071148357,0.21234658769100326,0.0,-0.031577933579683304,0.09946040878400586,0.21120977883099218,0.02201420048496734,0.09946040878400586,0.0,0.0,0.0,-0.05324319887425331,0.06305296192238273,-0.00805973296850406,0.049595790231685345,0.16275552184105563,-0.0,0.05438827492394501,-0.0,0.04507213386006085,1.3493140447168166,-1.458620997593654,-2.8079350423104703,-2.8079350423104703,-4.597810445311728,5.795553684234619,0.0,8.69067809022705,1,-0.0012535235527948885,-0.02723700994033932,0.0009123234685516244,5.93405818939209,1,0.04155135154724121,0.022090982881417025,-0.004573143135099861,-1.458620997593654,1.5707963267948966,-1.4608119436004563,1,0.001314567604081418,0.008816498798605427,0.00026221254056722575,0.039985482000020056
169.00341180700002,8.686193465064447,-0.0,-0.0,-0.0018198373365774247,0.03016020087031277,-0.0,-0.0048939744824523365,0.19971185109786577,0.0,-0.048834655433893204,0.1856830021407738,0.20183497372003123,-0.007556756507128098,0.1856830021407738,0.0,0.0,0.0,-0.05693890893747704,0.06002768737052172,0.02706866507452557,0.034300326659807596,0.16541254977067635,-0.0,0.06622990992946232,-0.0,0.11945309221131148,1.3411109972324429,-1.4583331520002198,-2.799444149232663,-2.799444149232663,-4.5799955113621476,5.791159629821777,0.0,8.69067809022705,1,-0.0008969250325208122,-0.027296755389623686,0.0004925208412593334,5.93405818939209,1,0.04286956787109375,0.023786667743854933,-0.005107707833071362,-1.4583331520002198,1.5707963267948966,-1.4608119436004563,1,0.001487274960141871,0.00887354105556439,0.00033626707448121754,0.040264351000018905
169.1008609920001,8.686847556000924,-0.0,-0.0,0.0016370494495467959,0.02377486211901902,-0.0,-0.006411533046596312,0.20512301773223257,0.0,-0.036592964082956314,0.11832020866045641,0.20649546097323185,-0.000566630222142539,0.11832020866045641,0.0,0.0,0.0,-0.06519228900923771,0.057575866291989374,0.031386552652843784,0.03798551769100332,0.1671362917782113,-0.0,0.060447163652348465,-0.0,0.05787304500810794,1.3351768777756625,-1.4581498510344697,-2.793326728810132,-2.793326728810132,-4.570691172759725,5.78760290145874,0.0,8.69067809022705,1,-0.0007661068452254228,-0.02732846767022436,9.87653244339893e-05,5.93405818939209,1,0.04393658638000488,0.024952086412511548,-0.004736364121558633,-1.4581498510344697,1.5707963267948966,-1.4608119436004563,1,0.0015972555395919574,0.008915239925690438,0.00034211589312280145,0.040050000000064756
169.20138558400004,8.688282847001082,-0.0,-0.0,-0.0007401993986514581,0.028828487479855103,-0.0,0.0039871622317069295,0.18426064801797007,0.0,-0.049752987921237946,0.14368619427432855,0.1863353791427988,-0.00788635391596449,0.14368619427432855,0.0,0.0,0.0,-0.05977766507987869,0.054000448503101595,0.03460387429775557,0.015268619025309774,0.16899168930585012,-0.0,0.0702112168443218,-0.0,0.07347497743000676,1.3252285010392946,-1.4578977358369323,-2.783126236876227,-2.783126236876227,-4.552984664948504,5.779814720153809,0.0,8.69067809022705,1,-0.00047904864519381367,-0.027362657655529088,-7.015904332795997e-05,5.93405818939209,1,0.04627304077148437,0.026773606893210757,-0.005780940845396718,-1.4578977358369323,1.5707963267948966,-1.4608119436004563,1,0.0017485246581144143,0.008982589742566367,0.00019632920616695444,0.040070814000046084
169.30083458400009,8.688701630309955,-0.0,-0.0,0.00017119672451229904,0.0287081881755508,-0.0,0.0012983689249049554,0.19182180568725954,0.0,-0.045477621257305145,0.13062923786141664,0.1938365999421719,-0.006865692121119881,0.13062923786141664,0.0,0.0,0.0,-0.061775278996661485,0.05160814977253953,0.03887512338197749,0.021558874447852327,0.17026295682165377,-0.0,0.06962525850493807,-0.0,0.06100397935647857,1.3185962498817156,-1.4576434143751869,-2.7762396642569023,-2.7762396642569023,-4.543528173131104,5.773073673248291,0.0,8.69067809022705,1,-0.00039529198341909934,-0.027379050600337265,-0.0001341329629411018,5.93405818939209,1,0.04829535484313965,0.02804939542166426,-0.005780274013878932,-1.4576434143751869,1.5707963267948966,-1.4608119436004563,1,0.001901117535161667,0.009032242752266318,0.00016449702286438985,0.040045296000016606
169.40138147300001,8.689469698656218,-0.0,-0.0,-0.006836219217017647,0.04747810438777835,-0.0,-0.0007428741350580861,0.19813445729832566,0.0,-0.05173585191369057,0.11532707957273935,0.20223575576433916,-0.024741314750541414,0.11532707957273935,0.0,0.0,0.0,-0.04519662475264325,0.04871329866100857,0.043961366970131144,0.02644471751482642,0.17169032422082559,-0.0,0.07633165556029324,-0.0,0.03899542401244612,1.3110913340981405,-1.4573393624607969,-2.768430696558937,-2.768430696558937,-4.541473356834949,5.760434627532959,0.0,8.69067809022705,1,-0.00024167831416654906,-0.02739835561678456,0.0002598943718228969,5.93405818939209,1,0.05208706855773926,0.03008195928277977,-0.006685453820387516,-1.4573393624607969,1.5707963267948966,-1.4608119436004563,1,0.0020835486837956553,0.009113452796502098,8.045052774707891e-05,0.04005907400005526
169.5035513800001,8.691020877319868,-0.0,-0.0,-0.01007373439626544,0.01765715452947068,-0.0,0.005207749864519294,0.1859240685575102,0.0,-0.04489428922533989,0.09232951484661116,0.18672734290178256,0.0035261576674156594,0.09232951484661116,0.0,0.0,0.0,-0.03644049468333373,0.04732270326880257,0.006771825406261308,0.013454361784600173,0.17246367048676162,-0.0,0.07464620087545837,-0.0,0.017683313971152786,1.3084733402201492,-1.4572288539343803,-2.7657021941545294,-2.7657021941545294,-4.54071700072546,5.751901626586914,0.0,8.69067809022705,1,6.85574185634863e-05,-0.027398891394425102,0.0006927383598990254,5.93405818939209,1,0.054646968841552734,0.03152180530871731,-0.006652728583179316,-1.4572288539343803,1.5707963267948966,-1.4608119436004563,1,0.002149853799645607,0.009170266347982061,3.2487098917030694e-06,0.03999312899998131
169.6013068430001,8.694660527207786,-0.0,-0.0,-0.021009281888977212,0.08333390779309013,-0.0,0.007886400365148519,0.18114203469791798,0.0,-0.043707095086574554,0.11104951144014685,0.1894220193641425,-0.06225974223026779,0.11104951144014685,0.0,0.0,0.0,-0.008833945224326551,0.046160680233389845,0.04600001950753896,0.0076300553789046995,0.17349292307088923,-0.0,0.07790116798573257,-0.0,0.03314834345441429,1.3081242743697503,-1.457177698216527,-2.7653019725862773,-2.7653019725862773,-4.553994541206989,5.738553047180176,0.0,8.69067809022705,1,0.0007964873961469721,-0.02736635423594408,0.0015451553033987374,5.93405818939209,1,0.05865154266357422,0.03382061194184024,-0.006343969715768046,-1.457177698216527,1.5707963267948966,-1.4608119436004563,1,0.0021805472303575877,0.009257283827824534,-8.322370262237533e-05,0.03992544400000497
169.70086382500006,8.697027009038266,-0.0,-0.0,-0.019443721651424092,0.04925301365026537,-0.0,0.004536259683891073,0.18927317922669423,0.0,-0.025084329769015312,0.01836526498736371,0.19363512181421466,-0.027488821877406516,0.01836526498736371,0.0,0.0,0.0,-0.010329091500124732,0.045736398953635314,0.01384334014087175,0.015036881465031867,0.1742261561614879,-0.0,0.06933524097760752,-0.0,-0.050969975990243804,1.3116149328737388,-1.4572401607730807,-2.7688550936468195,-2.7688550936468195,-4.56754267422497,5.731860160827637,0.0,8.69067809022705,1,0.0012697837622429376,-0.0273201281729158,0.0019115811682829816,5.93405818939209,1,0.06065940856933594,0.03542544320764483,-0.005610446583316891,-1.4572401607730807,1.5707963267948966,-1.4608119436004563,1,0.002143069696425348,0.009314595356601034,-8.645924866627773e-05,0.04000209299999824
169.80135591700002,8.70270103774757,-0.0,-0.0,-0.021615502210861462,0.08148026883205244,-0.0,0.015225891076138611,0.1654476169689074,0.0,-0.01965653896331787,0.1214962965265978,0.17360604290265355,-0.06223254805418006,0.1214962965265978,0.0,0.0,0.0,-0.0019703016494204938,0.0454761683871089,0.037947763495835035,-0.008895614757189453,0.17430541412432113,-0.0,0.07062559963211901,-0.0,0.0508706968944788,1.3222614413109044,-1.4573801551946568,-2.779641596505561,-2.779641596505561,-4.595316235485461,5.721628665924072,0.0,8.69067809022705,1,0.0024045895041037825,-0.02719813047833397,0.0022824471045412285,5.93405818939209,1,0.06372885704040528,0.037941997352581934,-0.0036180606361067235,-1.4573801551946568,1.5707963267948966,-1.4608119436004563,1,0.0020590730434796975,0.00939806679241724,-0.00027471001302625776,0.04001574099993377
169.90090330600003,8.706159830753721,-0.0,-0.0,-0.01805054367363866,0.08913093816097498,-0.0,0.024799470257829682,0.14347377491507973,0.0,-0.0013695774832740426,0.12126466501937103,0.15263078740102226,-0.07233872381499723,0.12126466501937103,0.0,0.0,0.0,-0.00837991846070638,0.04499105080227676,0.05244916460249326,-0.030386063621744955,0.17380842161711793,-0.0,0.06324796768299823,-0.0,0.05801669733637279,1.330813554645676,-1.4574968408559843,-2.7883103955016604,-2.7883103955016604,-4.608808740673543,5.715501308441162,0.0,8.69067809022705,1,0.0030963481053341013,-0.02708129351512535,0.0021253478903769632,5.93405818939209,1,0.06556706428527832,0.039678575000413524,-0.0012019372973021741,-1.4574968408559843,1.5707963267948966,-1.4608119436004563,1,0.001989061646683199,0.009451597096791267,-0.00045303558643794396,0.03998468499992214
170.00366317600003,8.710267464907384,-0.0,-0.0,-0.009315800429367272,0.020651277824973627,-0.0,0.0330212383632206,0.12248838414953094,0.0,0.031211167573928833,0.019788696734501454,0.12403521621467503,-0.006718978043283589,0.019788696734501454,0.0,0.0,0.0,-0.02652562103363318,0.043708909335696634,0.00334280367902722,-0.04951021079992907,0.1719632780929155,-0.0,0.048258226653506535,-0.0,-0.02846952991900508,1.3447761886616307,-1.4578862842523455,-2.802662472913976,-2.802662472913976,-4.633589997323344,5.7107038497924805,0.0,8.69067809022705,1,0.003917874936066568,-0.026861816004667017,0.001571040169399915,5.93405818939209,1,0.06700630187988281,0.042346983168994656,0.002288260280895603,-1.4578862842523455,1.5707963267948966,-1.4608119436004563,1,0.0017553956088665057,0.009525272590443543,-0.0007640711087844789,0.040220073999989836
170.10087636100002,8.71303156559098,-0.0,-0.0,-0.0046229163239660835,0.01126927990757761,-0.0,0.03990949818383956,0.1044386260650209,0.0,0.04687602445483208,0.031482250796336445,0.10504347799470416,0.0005394578395935615,0.031482250796336445,0.0,0.0,0.0,-0.03630611977482283,0.04241742878143824,0.004975167931261508,-0.06548587005110605,0.1699033211359554,-0.0,0.04199213998540036,-0.0,-0.010509889189063922,1.3538519007720016,-1.4581733093782725,-2.8120252101502743,-2.8120252101502743,-4.643795609867476,5.707252502441406,0.0,8.69067809022705,1,0.004470695072785702,-0.02668862940225163,0.001092236289671286,5.93405818939209,1,0.06804170608520507,0.044152989875120285,0.004668228470173997,-1.4581733093782725,1.5707963267948966,-1.4608119436004563,1,0.0015831805333102798,0.009568728406324261,-0.0010087153244795427,0.03996761099995183
170.20129539800007,8.717985076044656,-0.0,-0.0,0.008281144163659892,-0.059007148068506314,-0.0,0.054984420072530196,0.06463662590159752,0.0,0.07846996933221817,-0.012604501666851498,0.05763816926148847,0.06586029437609354,-0.012604501666851498,0.0,0.0,0.0,-0.06423919479159955,0.039360713796174375,-0.03447545436674374,-0.10041690535296875,0.16510576051458498,-0.0,0.027259045119418065,-0.0,-0.03986354678626956,1.368512666488754,-1.4588193013094657,-2.8273319677982194,-2.8273319677982194,-4.6654410221550515,5.706061840057373,0.0,8.69067809022705,1,0.005461397163520943,-0.02638070476392969,8.177678870315528e-07,5.93405818939209,1,0.06839890480041504,0.046882671207553316,0.008620135189946601,-1.4588193013094657,1.5707963267948966,-1.4608119436004563,1,0.0011955853745943656,0.009621747990822613,-0.0014769611805998425,0.039973056000008
170.300841084,8.719690071509673,-0.0,-0.0,0.019464744764138293,-0.07099680726484071,-0.0,0.0531188414804309,0.06465559984112043,0.0,0.09796204417943954,-0.01999725253356257,0.05635023409122712,0.07775309865516572,-0.01999725253356257,0.0,0.0,0.0,-0.0898677570184197,0.03627977012186892,-0.017732411149279075,-0.0970846440127847,0.16185881970730176,-0.0,0.018240730927234827,-0.0,-0.038237983460797396,1.3779374444495236,-1.4592432983290038,-2.8371807427785276,-2.8371807427785276,-4.67722274404967,5.706762790679932,0.0,8.69067809022705,1,0.00580239625652439,-0.0261514991503774,-0.0010351328049267397,5.93405818939209,1,0.06818861961364746,0.04870302679947722,0.01147161597837292,-1.4592432983290038,1.5707963267948966,-1.4608119436004563,1,0.0009411871628715041,0.009648599184119791,-0.001600328508735256,0.04001344499999959
170.40133088000005,8.720662141631378,-0.0,-0.0,0.027141798460684544,-0.0927005454089519,-0.0,0.07100162959926677,0.01724713732475025,0.0,0.11178107559680939,0.0390690428665397,0.0068946082650088916,0.09403892407874527,0.0390690428665397,0.0,0.0,0.0,-0.10864092671460805,0.030368249097877432,-0.015005946764193513,-0.13819263206164134,0.1556607516798993,-0.0,0.01264985709957751,-0.0,0.026419185766962186,1.3901547492134831,-1.4600329970793386,-2.850187746292822,-2.850187746292822,-4.69261039574088,5.709342002868652,0.0,8.69067809022705,1,0.005996810280865361,-0.02579062999934109,-0.0024466212365706562,5.93405818939209,1,0.06741485595703124,0.05,0.015449314805740669,-1.4600329970793386,1.5707963267948966,-1.4608119436004563,1,0.00046736791267059096,0.009673729786414918,-0.001954300855110253,0.04001211100001001
170.50395306500002,8.719120425800156,-0.0,-0.0,0.044073017534841136,-0.15894071374386073,-0.0,0.060977143925775745,0.0342112214250204,0.0,0.11761301755905151,0.033218822816347915,0.01652255052433873,0.1617391835053285,0.033218822816347915,0.0,0.0,0.0,-0.14872186901211168,0.025288302486671962,-0.03593359070122263,-0.11698117849166093,0.15150062443959456,-0.0,0.009624834069609827,-0.0,0.023593988746738088,1.3964379345206632,-1.4605882108746475,-2.8570261453953107,-2.8570261453953107,-4.695014079969598,5.71151065826416,0.0,8.69067809022705,1,0.0056884671146210765,-0.02555920721574211,-0.00365709191499768,5.93405818939209,1,0.0667642593383789,0.05,0.01689014833668899,-1.4605882108746475,1.5707963267948966,-1.4608119436004563,1,0.00013423963548526706,0.00967961933342291,-0.002009977993887389,0.039976795999905335
170.60138925,8.715885872889144,-0.0,-0.0,0.056101795624798396,-0.2566007906387726,-0.0,0.05993775639245477,0.028745630977028563,0.0,0.1363540142774582,-0.02563207957610269,0.0005609214537792943,0.25820527187459474,-0.02563207957610269,0.0,0.0,0.0,-0.17958255555724187,0.016062799921771568,-0.09349321739001022,-0.11594600765715204,0.14507744173077666,0.0,-0.001499345142904468,-0.0,-0.02413273443319822,1.4028956527530418,-1.4614091142402779,-2.8643047669933197,-2.8643047669933197,-4.701160696633555,5.717952728271484,0.0,8.69067809022705,1,0.005041556532418667,-0.0252435019855634,-0.005324693266257723,5.93405818939209,1,0.06483163833618164,0.05,0.0190234673697691,-1.4614091142402779,1.5707963267948966,-1.4608119436004563,1,-0.0003583023838929389,0.009672137579057891,-0.002078809555961105,0.03999394400000256
170.70082808300003,8.713536140169227,-0.0,-0.0,0.06516426144483649,-0.1753079171554313,-0.0,0.060574658526183815,0.02316528469736579,0.0,0.12778718769550323,0.061434133495881255,0.0039728254803380325,0.17678719662404385,0.061434133495881255,0.0,0.0,0.0,-0.20282262651385696,0.008720758161919157,0.01837284899453729,-0.11778477071096426,0.14140306355813675,-0.0,0.0033074604874629766,-0.0,0.05812667300841828,1.404990047855435,-1.4618855032079636,-2.8668755510633988,-2.8668755510633988,-4.699503014076216,5.722280025482178,0.0,8.69067809022705,1,0.004571609988435199,-0.025054740865428745,-0.006544710639014039,5.93405818939209,1,0.06353344917297363,0.05,0.019766172668301243,-1.4618855032079636,1.5707963267948966,-1.4608119436004563,1,-0.0006441357645043944,0.009657201758886461,-0.001976939609545638,0.03994688900002075
170.80143691700005,8.708238649401338,-0.0,-0.0,0.0721208852286199,-0.32729507549251396,-0.0,0.04530192686769768,0.05011529195363477,0.0,0.13587255775928497,-0.03584093420171347,0.014456386467033282,0.33079392651553363,-0.03584093420171347,0.0,0.0,0.0,-0.2218776197135115,-0.002450879260246567,-0.10320224582693079,-0.0849844489698436,0.1354749275943771,0.0,-0.002406850343374739,-0.0,-0.03343408385833873,1.4048155149302355,-1.4625311295741772,-2.867346644504413,-2.867346644504413,-4.692042841447478,5.727834224700928,0.0,8.69067809022705,1,0.003512111834857379,-0.024821006838284067,-0.0074236832740949945,5.93405818939209,1,0.06186718940734863,0.05,0.019993951112978442,-1.4625311295741772,1.5707963267948966,-1.4608119436004563,1,-0.0010315115842325362,0.009621253356944191,-0.0019171098913065183,0.040042648000053305
170.90085930500004,8.704370053847969,-0.0,-0.0,0.06242152725157617,-0.107577609897312,-0.0,0.057657042133022536,0.018951467655152175,0.0,0.11251762509346008,0.10943291158366576,0.007257161052878,0.10899281577679838,0.10943291158366576,0.0,0.0,0.0,-0.2027534833402516,-0.010336601824168581,0.10513055969056861,-0.1125861987933018,0.13195114158846835,-0.0,0.010620394761260575,-0.0,0.09881251682240519,1.4021975210522442,-1.4629056902264457,-2.86510321127869,-2.86510321127869,-4.6834787468865935,5.7312798500061035,0.0,8.69067809022705,1,0.0027383927241835695,-0.024703211405182047,-0.007774328312994254,5.93405818939209,1,0.060833501815795894,0.05,0.01938478121309846,-1.4629056902264457,1.5707963267948966,-1.4608119436004563,1,-0.0012562479755936272,0.00958939844805553,-0.0018516532454856316,0.04012079700009963
171.00327856500007,8.70094780543275,-0.0,-0.0,0.07281105225415033,-0.30398932818246993,-0.0,0.03335499388893605,0.06855571303537118,0.0,0.12565359473228455,-0.05092360104112914,0.03556285689090619,0.3095879207081157,-0.05092360104112914,0.0,0.0,0.0,-0.22752467412748983,-0.0221419500276036,-0.05445057005326346,-0.05911978330385745,0.12795461675889921,0.0,0.0012808272239351103,-0.0,-0.05220442826506425,1.395914335745065,-1.4633571632977131,-2.8592714990427783,-2.8592714990427783,-4.668769612655464,5.7369866371154785,0.0,8.69067809022705,1,0.002053943041139661,-0.024564689122925296,-0.008098508085650314,5.93405818939209,1,0.0591214656829834,0.05,0.018666841089193004,-1.4633571632977131,1.5707963267948966,-1.4608119436004563,1,-0.0015271318183541105,0.009531893153889907,-0.0015223962210804036,0.04007959199998368
171.10081141600006,8.697306301757235,-0.0,-0.0,0.05897462528179709,-0.21615384633008616,-0.0,0.0400001504780128,0.05120333467119636,0.0,0.09588054567575455,0.0627150149584566,0.027778624612555286,0.22039195715673424,0.0627150149584566,0.0,0.0,0.0,-0.19769933763052516,-0.029501213979670985,0.010862738890661265,-0.07392592792541487,0.12540049529830183,-0.0,0.017507767995099763,-0.0,0.04520724696335684,1.390503815063882,-1.4635806977441221,-2.8540845128080043,-2.8540845128080043,-4.660098070992567,5.739847660064697,0.0,8.69067809022705,1,0.0013256423060369117,-0.024504131857081002,-0.007710220453761159,5.93405818939209,1,0.05826315879821777,0.05,0.01679700020270305,-1.4635806977441221,1.5707963267948966,-1.4608119436004563,1,-0.0016612524861995047,0.009488607156564235,-0.0014298987039041435,0.03996581499995955
171.201313046,8.69324136311412,-0.0,-0.0,0.0686969370646306,-0.2764159962830452,-0.0,0.010966101065551948,0.1144225787847278,0.0,0.1022404357790947,-0.025788373940572824,0.08425451211740426,0.28705314268398785,-0.025788373940572824,0.0,0.0,0.0,-0.22110745604854182,-0.04113667983737418,-0.014185693600137947,-0.009360458535549135,0.12386969516437418,0.0,0.012109732491050823,-0.0,-0.03789810643162365,1.3798573066267172,-1.463818718653592,-2.8436760252803093,-2.8436760252803093,-4.640676500258603,5.744251728057861,0.0,8.69067809022705,1,0.0005126545774139402,-0.02445930617175616,-0.007859800454000719,5.93405818939209,1,0.05694193840026855,0.05,0.015481384863910846,-1.463818718653592,1.5707963267948966,-1.4608119436004563,1,-0.001804065031881441,0.009418292227397467,-0.0009028800097591386,0.04002709300004881
171.30084843500003,8.69149802275979,-0.0,-0.0,0.0526500825313735,-0.27020936531648354,-0.0,0.016096668075255227,0.10213678005712916,0.0,0.07008673250675201,0.10354679596703442,0.07272797222404624,0.27956334702774177,0.10354679596703442,0.0,0.0,0.0,-0.1848994261114786,-0.04787552404001315,-0.03746422621970831,-0.020611657293664723,0.1228459453868566,0.0,0.03046381204253331,-0.0,0.07308298392450112,1.3728759896187395,-1.4639128657783507,-2.8367888553970904,-2.8367888553970904,-4.630669354229685,5.7429022789001465,0.0,8.69067809022705,1,0.00016398650654778635,-0.024449614957930833,-0.007109482704279174,5.93405818939209,1,0.057346773147583005,0.05,0.013512979430057855,-1.4639128657783507,1.5707963267948966,-1.4608119436004563,1,-0.0018605533067366231,0.009369097700728846,-0.0007808114522209598,0.04000562999999602
171.40131439800007,8.689384203421673,-0.0,-0.0,0.048392507330714714,-0.2201410274940535,-0.0,-0.0030132476944760207,0.14651806458350444,0.0,0.0691777765750885,0.00739487213233796,0.12218639359280575,0.23452100216444915,0.00739487213233796,0.0,0.0,0.0,-0.17524722407258536,-0.05800350892653428,0.01310866059078272,0.022530239550415332,0.1239710437966136,0.0,0.030139810856564912,-0.0,-0.022744938724226952,1.3624040141067741,-1.463866427433718,-2.8262704415404922,-2.8262704415404922,-4.621695962473306,5.740880012512207,0.0,8.69067809022705,1,-0.0002587773610756017,-0.024459893887171597,-0.006546650544940507,5.93405818939209,1,0.05795345306396484,0.05,0.011457341605398522,-1.463866427433718,1.5707963267948966,-1.4608119436004563,1,-0.0018326902999570736,0.009295478350891005,-0.0002350177679484382,0.04001624099998935
171.503104657,8.688681546534509,-0.0,-0.0,0.040836841816518414,-0.24670997719849677,-0.0,-0.004178732562566979,0.14999404122774793,0.0,0.0535898432135582,0.0429834861718545,0.12280303811580734,0.26131100069197566,0.0429834861718545,0.0,0.0,0.0,-0.15714953323720432,-0.06369617768019435,-0.0258662759998035,0.025323488824790494,0.12465091234137421,0.0,0.038742527190562245,-0.0,0.00424095898129225,1.3569934934255912,-1.4638515994507408,-2.820845092876332,-2.820845092876332,-4.615599170637785,5.738825798034668,0.0,8.69067809022705,1,-0.0003993087385083527,-0.024474446745135072,-0.0057210087167492134,5.93405818939209,1,0.05856971740722656,0.05,0.009591004457268711,-1.4638515994507408,1.5707963267948966,-1.4608119436004563,1,-0.0018237935101707236,0.009246791777774334,-9.105409162945522e-05,0.039952352000000246
171.60142984200002,8.68908271243728,-0.0,-0.0,0.035574850457913795,-0.2098797907036228,-0.0,-0.021914126060865645,0.19263682020241057,0.0,0.048563309013843536,0.01192036497807647,0.16911151188742238,0.22925917122471365,0.01192036497807647,0.0,0.0,0.0,-0.14357458925780578,-0.0717156949585377,0.005355225432429045,0.06520792604269483,0.1273391733245791,0.0,0.04137638297936507,-0.0,-0.0294560180012886,1.3512339068940102,-1.4637557590718857,-2.814989665965896,-2.814989665965896,-4.611361915146673,5.734647750854492,0.0,8.69067809022705,1,-0.0003190755579542071,-0.02449537117325444,-0.004871879746243823,5.93405818939209,1,0.059823131561279295,0.05,0.0077008157515060386,-1.4637557590718857,1.5707963267948966,-1.4608119436004563,1,-0.001766289282857647,0.009175459468088272,0.00031667013694682987,0.04006664799999271
171.70093910100002,8.689174705808936,-0.0,-0.0,0.03170043046778405,-0.24346623198533093,-0.0,-0.0267864925200487,0.20605048727878789,0.0,0.04567662253975868,-0.005418211540392459,0.17884363675633802,0.2640976391729542,-0.005418211540392459,0.0,0.0,0.0,-0.13375631958600806,-0.07648894073122105,-0.033303547540474016,0.07636182346541255,0.12959093953318107,0.0,0.04282361658510931,-0.0,-0.04824182812550177,1.3489649788664169,-1.463693203690911,-2.812658182557328,-2.812658182557328,-4.6099542805325475,5.732857704162598,0.0,8.69067809022705,1,-0.00030067688362294125,-0.024507545025239778,-0.0042896747079023394,5.93405818939209,1,0.060360145568847653,0.05,0.006689171279426547,-1.463693203690911,1.5707963267948966,-1.4608119436004563,1,-0.001728756054272784,0.009129101710975472,0.0005230815802543101,0.0400288340000543
171.80144119400006,8.691344767315003,-0.0,-0.0,0.02235969416373281,-0.17457559353354268,-0.0,-0.02453941395590666,0.20522441113005233,0.0,0.018115827813744545,0.11316773708135175,0.1853389965426498,0.19555856703767574,0.11316773708135175,0.0,0.0,0.0,-0.11024748710069539,-0.08277044414240575,0.01837305236265059,0.07195769546596043,0.13320358460604495,0.0,0.058935208804074976,-0.0,0.05423252827727678,1.3484413800908186,-1.4634497611794304,-2.811891141270249,-2.811891141270249,-4.616396451733908,5.728389263153076,0.0,8.69067809022705,1,0.00013333541759052991,-0.02450804878952438,-0.0033780866010130525,5.93405818939209,1,0.0617006778717041,0.05,0.004640497948832077,-1.4634497611794304,1.5707963267948966,-1.4608119436004563,1,-0.0015826905473844465,0.009063509722420125,0.000687810262676034,0.03997763000006671
171.900911157,8.692439929875748,-0.0,-0.0,0.0206964669705117,-0.18380839875657898,-0.0,-0.029130838635675192,0.2184321898933658,0.0,0.015861641615629196,0.09134164599879527,0.19743540618231586,0.20619750100496584,0.09134164599879527,0.0,0.0,0.0,-0.10517365524875416,-0.08664626870840282,0.00791389947449145,0.08248611573834586,0.13587671440741048,0.0,0.060386788751143505,-0.0,0.030954857247651762,1.3496631105672154,-1.4632259899917734,-2.812889100558989,-2.812889100558989,-4.622065430410159,5.724750518798828,0.0,8.69067809022705,1,0.0003523679297394722,-0.024495977689851345,-0.0029661302006283186,5.93405818939209,1,0.06279230117797852,0.05,0.0037139883562231912,-1.4632259899917734,1.5707963267948966,-1.4608119436004563,1,-0.001448427834790289,0.009023961333837283,0.0007873168372532006,0.039933907000090585
172.00563198999998,8.694597909536403,-0.0,-0.0,0.018919659566513477,-0.19692344483771448,-0.0,-0.03067390221642579,0.2273281918496087,0.0,0.014943776652216911,0.07917597643275706,0.20476937311688181,0.22028720745809122,0.07917597643275706,0.0,0.0,0.0,-0.09936347189914269,-0.09222161259953325,-0.005446575610977791,0.08675015335262092,0.1405112913289704,-0.0,0.06125412915471724,-0.0,0.01792184727803982,1.3533283019964033,-1.4627603858579223,-2.8160886878543256,-2.8160886878543256,-4.628127610551327,5.720549583435059,0.0,8.69067809022705,1,0.000783963861870518,-0.024454230061932855,-0.0025752887330344884,5.93405818939209,1,0.06405258178710938,0.05,0.0029814101229696174,-1.4627603858579223,1.5707963267948966,-1.4608119436004563,1,-0.001169065354479626,0.008973788950973054,0.0009532620746357454,0.04027522199999112
172.10082424900008,8.694937703006799,-0.0,-0.0,0.014782873470433602,-0.17238125748686525,-0.0,-0.02531492323247554,0.21856136107565902,0.0,0.0216861329972744,0.04539078702961961,0.1986701682378526,0.19497315389648104,0.04539078702961961,0.0,0.0,0.0,-0.0892925685159263,-0.09555550652864582,0.012393114288039462,0.0750878081424885,0.14343051325654005,-0.0,0.05765407817243301,-0.0,-0.012263291142813403,1.3568189605003917,-1.4626076860901607,-2.8194266465905526,-2.8194266465905526,-4.638171072093316,5.718122482299805,0.0,8.69067809022705,1,0.0008519225559496136,-0.024420063192476624,-0.002236517036642253,5.93405818939209,1,0.06478071212768555,0.05,0.0029955511569772094,-1.4626076860901607,1.5707963267948966,-1.4608119436004563,1,-0.0010774454938226262,0.00894431353342113,0.0009490306108752753,0.04001974000004793
172.20133263800005,8.696518956480418,-0.0,-0.0,0.014967615170523774,-0.18413781654303396,-0.0,-0.023254886962120032,0.21814789039155288,0.0,0.022451812401413918,0.022205353813429897,0.19692650923007227,0.20667652872539555,0.022205353813429897,0.0,0.0,0.0,-0.08814771053182205,-0.10028412294886364,0.004231832312938428,0.07070796985415494,0.14739989645412685,-0.0,0.05714422662268438,-0.0,-0.034938872809254486,1.3634512116579707,-1.4623020460150227,-2.8257532576729933,-2.8257532576729933,-4.650885939991609,5.717025279998779,0.0,8.69067809022705,1,0.0011681732506733766,-0.02435393772566999,-0.001913761505307812,5.93405818939209,1,0.06510987281799316,0.05,0.0025823172878947386,-1.4623020460150227,1.5707963267948966,-1.4608119436004563,1,-0.0008940614487398246,0.008906018954391725,0.0008731418295712191,0.04003601900001286
172.30082680500004,8.697052024783607,-0.0,-0.0,0.01634751141726464,-0.17971959387913303,-0.0,-0.02917619589964226,0.2344038779485566,0.0,0.02106284722685814,0.04170751914607553,0.2135234833940781,0.2040882957463783,0.04170751914607553,0.0,0.0,0.0,-0.0909489543529721,-0.10363802221365966,0.014769504647359539,0.08404456675547277,0.15030446982911103,0.0,0.05802579627260636,-0.0,-0.016318277126530827,1.3686871994139533,-1.4620969924080771,-2.8307841918220307,-2.8307841918220307,-4.657846553523743,5.717243194580078,0.0,8.69067809022705,1,0.0012747869113113098,-0.024304066898844304,-0.0019636423920078626,5.93405818939209,1,0.06504449844360351,0.05,0.002728009237598566,-1.4620969924080771,1.5707963267948966,-1.4608119436004563,1,-0.0007710292845724886,0.00888459586085532,0.0009123133220170735,0.04002959299998565
172.40138878599998,8.697497725999689,-0.0,-0.0,0.013811936475431368,-0.18362183296263415,-0.0,-0.0074424764225118,0.18902797598986823,0.0,0.017467088997364044,0.0860709496220963,0.16796731613085428,0.20306534406240118,0.0860709496220963,0.0,0.0,0.0,-0.08475827083463261,-0.10844610841936198,0.009576177740652567,0.03574375350133964,0.1532724035706276,-0.0,0.06024785199359217,-0.0,0.025823097628504134,1.3770647798235256,-1.461975173322274,-2.8390399531457993,-2.8390399531457993,-4.674171199016056,5.717596054077148,0.0,8.69067809022705,1,0.0013639271545276444,-0.024224386513436183,-0.0018540909086749147,5.93405818939209,1,0.06493864059448241,0.05,0.002941535058868586,-1.461975173322274,1.5707963267948966,-1.4608119436004563,1,-0.0006979378330905561,0.00885571034910019,0.0006469117439056738,0.040025962999948206
172.50316532300008,8.69805356792702,-0.0,-0.0,0.022046507259063132,-0.23099134786757036,-0.0,-0.014894667532229459,0.20731394410832935,0.0,0.018955441191792488,0.08260708798178235,0.1809858760421111,0.2521511191422675,0.08260708798178235,0.0,0.0,0.0,-0.1031630805475523,-0.112051868417312,-0.015801904737909656,0.052053740268305185,0.15522245109530877,-0.0,0.05956075575912142,-0.0,0.023046332222660927,1.3819517017291103,-1.4619172464263626,-2.843868948155473,-2.843868948155473,-4.676512903841742,5.7171196937561035,0.0,8.69067809022705,1,0.001475095539993987,-0.024166657430205154,-0.0021542401905221957,5.93405818939209,1,0.0650815486907959,0.05,0.00314181876619896,-1.4619172464263626,1.5707963267948966,-1.4608119436004563,1,-0.0006631816955437575,0.008837826566346584,0.0005914786280155243,0.04005800000004456
172.60139747100004,8.69752184448711,-0.0,-0.0,0.018368805500821074,-0.18726273094939594,-0.0,0.00030341440243479177,0.1755903467302013,0.0,0.012251556850969791,0.10619906444979482,0.15418224522303617,0.20524895986445754,0.10619906444979482,0.0,0.0,0.0,-0.09566418216411697,-0.11769647693281927,0.02609791756288169,0.01820979058395071,0.15738119694488772,-0.0,0.0639009447193589,-0.0,0.042298119730435936,1.3882348870362895,-1.4618216803423854,-2.850056567378675,-2.850056567378675,-4.6885353164580295,5.714371204376221,0.0,8.69067809022705,1,0.0013687508520117575,-0.024082039611372313,-0.002401624905326076,5.93405818939209,1,0.06590609550476074,0.05,0.0028470358784738773,-1.4618216803423854,1.5707963267948966,-1.4608119436004563,1,-0.0006058420451574342,0.008813477402380933,0.0003729565833707064,0.04005055499999344
172.70082950800008,8.696395694449805,-0.0,-0.0,0.02718640516078963,-0.23407684783196456,-0.0,-0.007268957623040057,0.19305782071086453,0.0,0.013698318041861057,0.11519189044857309,0.16648557243436551,0.25366483201220197,0.11519189044857309,0.0,0.0,0.0,-0.11629105580708436,-0.121845135800165,0.004053267954130605,0.03449846332843158,0.15853663339033552,0.0,0.06355018174154207,-0.0,0.051641708707031005,1.3917255455402788,-1.4619436020986725,-2.8536691476389513,-2.8536691476389513,-4.68835464478425,5.711906433105469,0.0,8.69067809022705,1,0.0011435208445508495,-0.024033733375109473,-0.0027829531300537233,5.93405818939209,1,0.06664552688598632,0.05,0.002969760725111529,-1.4619436020986725,1.5707963267948966,-1.4608119436004563,1,-0.0006789950989297022,0.008795821624165394,0.00029533554646587643,0.04000070399990818
172.80145919300003,8.692504489405758,-0.0,-0.0,0.02734200107861115,-0.2565235502219631,-0.0,0.004310185226044918,0.16837116319158327,0.0,0.016118034720420837,0.06055614156247653,0.13951835419488207,0.2732907046639498,0.06055614156247653,0.0,0.0,0.0,-0.11936469692234969,-0.12872711606311668,-0.008433874445250025,0.008542688320260972,0.15984203242418213,-0.0,0.06297344415191307,-0.0,-0.0024173025894365374,1.3952162040442673,-1.4619871117124505,-2.857203315756718,-2.857203315756718,-4.691240466629665,5.706400394439697,0.0,8.69067809022705,1,0.0003652798357414611,-0.02399775381174073,-0.0032822053646394313,5.93405818939209,1,0.06829733848571777,0.05,0.002776436487891516,-1.4619871117124505,1.5707963267948966,-1.4608119436004563,1,-0.0007051008671965509,0.008768023399803366,0.0001303028390112717,0.040027167000062036
172.90083374900007,8.690725743419625,-0.0,-0.0,0.04061373288676083,-0.3385247975225175,-0.0,-0.008277645089543612,0.1973463116546286,0.0,0.017589131370186806,0.04714758434211746,0.1594310422106372,0.3579474096022729,0.04714758434211746,0.0,0.0,0.0,-0.15060068066103216,-0.13383873845401978,-0.054093262606121864,0.036265231232110465,0.16104239710923413,-0.0,0.06254608112530337,0.0,-0.01539849678318591,1.3960888686702644,-1.4620256387771542,-2.858114507447419,-2.858114507447419,-4.685860890090658,5.70290994644165,0.0,8.69067809022705,1,9.530638514831935e-06,-0.02399358550503666,-0.003857067092641035,5.93405818939209,1,0.06934447288513183,0.05,0.0024881270272272544,-1.4620256387771542,1.5707963267948966,-1.4608119436004563,1,-0.0007282171060187359,0.008748790111943657,0.00018597791912713222,0.03991626000004089
173.00348652600007,8.68789597294086,-0.0,-0.0,0.0332726090077747,-0.3091437676706536,-0.0,0.005698135989695255,0.16682394676893447,0.0,0.01370757631957531,0.08369777546681324,0.13230281044768027,0.32541675533508796,0.08369777546681324,0.0,0.0,0.0,-0.13598845560315057,-0.14134123901274961,-0.031817810294915885,0.004978739897584726,0.16186702939908817,0.0,0.06614620040495334,0.0,0.01755157506185991,1.3962634015954638,-1.462100182401785,-2.8583635839972485,-2.8583635839972485,-4.687172992411766,5.695226192474365,0.0,8.69067809022705,1,-0.0005564234572382531,-0.024014004084457453,-0.0039698978155980275,5.93405818939209,1,0.07164959907531739,0.05,0.002301644585846827,-1.462100182401785,1.5707963267948966,-1.4608119436004563,1,-0.0007729432807972003,0.008718460826996082,1.5682033307611304e-05,0.040224796000075
173.100844897,8.685731139976097,-0.0,-0.0,0.043144653562404274,-0.29112210855283865,-0.0,-0.009664533430215894,0.20267767597088554,0.0,0.013511004857718945,0.11150630602453362,0.16991497825970103,0.3113827589771395,0.11150630602453362,0.0,0.0,0.0,-0.16000400946544302,-0.14709893575182761,0.015970083026664705,0.03910383588250721,0.16352583342780258,-0.0,0.06771610825314538,0.0,0.04379019777138825,1.3955652698946661,-1.4621483655155276,-2.8577136354101937,-2.8577136354101937,-4.683634429768524,5.688049793243408,0.0,8.69067809022705,1,-0.0009893900501907638,-0.024049278000539687,-0.00454577359843029,5.93405818939209,1,0.0738025188446045,0.05,0.002568666435023401,-1.4621483655155276,1.5707963267948966,-1.4608119436004563,1,-0.0008018531490427971,0.008697334581848478,0.00021445599266351755,0.03992164800001774
173.20130617400002,8.682338564501448,-0.0,-0.0,0.0358496027977846,-0.3515534014811256,-0.0,-0.015514215445033782,0.21749808420458977,0.0,0.022831544280052185,0.029364735150498596,0.17806850004708502,0.3730774986736638,0.029364735150498596,0.0,0.0,0.0,-0.14506777501769924,-0.15482678649383302,-0.05168656186491991,0.05209252998324371,0.16534149562039518,0.0,0.0634653063932261,0.0,-0.03410057124272751,1.3939944735678713,-1.4620768708124465,-2.856071344380318,-2.856071344380318,-4.6789788653200395,5.681371212005615,0.0,8.69067809022705,1,-0.0016679051451205852,-0.024136118636686854,-0.0042862711557257885,5.93405818939209,1,0.07580609321594238,0.05,0.002800961719486642,-1.4620768708124465,1.5707963267948966,-1.4608119436004563,1,-0.000758956327194138,0.00866632539488785,0.0002568382069287347,0.04000225900006171
173.30085017400006,8.68100947723611,-0.0,-0.0,0.03527575351179463,-0.2670510955374698,-0.0,-0.01607032738401283,0.22113598909367838,0.0,0.022188540548086166,0.03963018417897606,0.19083086137786048,0.28948401621848846,0.03963018417897606,0.0,0.0,0.0,-0.1447097524093471,-0.16024119436782286,0.03787010177071195,0.05372223095941131,0.1673484554860971,-0.0,0.06492508568203682,0.0,-0.02529490150306076,1.3922491443158762,-1.4619973412855416,-2.8542464856014176,-2.8542464856014176,-4.674073350178261,5.675200462341309,0.0,8.69067809022705,1,-0.0019337225981882256,-0.02421051375877175,-0.00435717031731226,5.93405818939209,1,0.07765731811523437,0.05,0.002739698569579836,-1.4619973412855416,1.5707963267948966,-1.4608119436004563,1,-0.0007112386110511793,0.00864705259615496,0.00041305452152489417,0.03992927700005566
173.40129467400004,8.67999036419395,-0.0,-0.0,0.02757030705923357,-0.3157358402049575,-0.0,-0.01846630339586818,0.22964795525489154,0.0,0.024439141154289246,0.034710621935907175,0.19393803164225648,0.33884412939493325,0.034710621935907175,0.0,0.0,0.0,-0.12706297569899416,-0.16725770825707673,-0.021454442509216402,0.05937904787747279,0.17021025274377155,0.0,0.06489790909922724,0.0,-0.030187287163320066,1.3901547492134831,-1.4617964717419303,-2.8519512209554136,-2.8519512209554136,-4.671001448758902,5.668161869049072,0.0,8.69067809022705,1,-0.0021375452066202173,-0.024334575085194952,-0.0037134706939485943,5.93405818939209,1,0.07976889610290527,0.05,0.002833426883429391,-1.4617964717419303,1.5707963267948966,-1.4608119436004563,1,-0.0005907168848843902,0.008621696167708005,0.0004931936292503835,0.040026703999956226
173.50333535900006,8.679928282401994,-0.0,-0.0,0.028457980733598703,-0.2628267230920308,-0.0,-0.027969885344402683,0.2544021492675456,0.0,0.019647609442472458,0.08346032213173005,0.22424230027019,0.28898742307023595,0.08346032213173005,0.0,0.0,0.0,-0.12910179028727065,-0.17209664132876626,0.03828157938229815,0.08107005864501057,0.17324038865998942,-0.0,0.06866016472083425,0.0,0.014800157410895801,1.3885839528866883,-1.4615933599104916,-2.8501773127971797,-2.8501773127971797,-4.667773255147906,5.66378927230835,0.0,8.69067809022705,1,-0.002149961565011438,-0.024420777867315748,-0.003653911782833487,5.93405818939209,1,0.08108067512512207,0.05,0.003000542185407503,-1.4615933599104916,1.5707963267948966,-1.4608119436004563,1,-0.00046884978602115265,0.008608380074346887,0.0007406110240945669,0.040024610999921606
173.60146147,8.6787892372302,-0.0,-0.0,0.024438433799641186,-0.36467775756814247,-0.0,-0.03655765169856856,0.2785798816910209,0.0,0.03184498846530914,-0.0009356727251258051,0.23704326735176895,0.39294669708639857,-0.0009356727251258051,0.0,0.0,0.0,-0.11962175950994318,-0.17828994813652776,-0.06692004166650854,0.10075971044966461,0.17771722926103106,0.0,0.06212543881133284,0.0,-0.06306111153645864,1.3878858211858907,-1.4612563756490489,-2.8491421968349395,-2.8491421968349395,-4.667563921104781,5.660843372344971,0.0,8.69067809022705,1,-0.002377770599370166,-0.024559688461685554,-0.0029976341892772635,5.93405818939209,1,0.08196444511413574,0.05,0.0034229413700614737,-1.4612563756490489,1.5707963267948966,-1.4608119436004563,1,-0.0002666592291555414,0.008594802503777846,0.0009140734130203181,0.04008548100000553
173.70086400700006,8.67934221282198,-0.0,-0.0,0.02643243580168647,-0.3504734147526755,-0.0,-0.04564990860579661,0.30340153379372353,0.0,0.03976691886782646,-0.038312321637182206,0.2631604481668816,0.381615884990904,-0.038312321637182206,0.0,0.0,0.0,-0.12389482900209113,-0.18259456241764413,-0.04422412380422239,0.12164689572942668,0.18161561390221315,0.0,0.05821268449797182,0.0,-0.09652500613515402,1.38806035411109,-1.460971936428976,-2.849032290540066,-2.849032290540066,-4.66895722292788,5.657151222229004,0.0,8.69067809022705,1,-0.00226717548101405,-0.024650575123404697,-0.00296564495848165,5.93405818939209,1,0.08307209014892578,0.05,0.0037159695488537,-1.460971936428976,1.5707963267948966,-1.4608119436004563,1,-9.599569711178368e-05,0.008591067894831751,0.0011490627098591827,0.03996083399999861
173.80130689600003,8.67822792995578,-0.0,-0.0,0.017852464012241706,-0.29668606916727186,-0.0,-0.03146551989393911,0.27745721668467743,0.0,0.022538939490914345,0.10369801412175235,0.24316621978068625,0.3253848802355547,0.10369801412175235,0.0,0.0,0.0,-0.10483749198795471,-0.18847635728134282,-0.003486307583869066,0.09078007485824834,0.1866124123602216,0.0,0.06931557308862797,0.0,0.03438244103312438,1.3898056833630843,-1.4606599271808782,-2.8504656105439627,-2.8504656105439627,-4.675934495104258,5.6530327796936035,0.0,8.69067809022705,1,-0.002490032054254243,-0.02479594609135019,-0.0025149632912241783,5.93405818939209,1,0.0843076229095459,0.05,0.0037572717290817502,-1.4606599271808782,1.5707963267948966,-1.4608119436004563,1,9.120985174684292e-05,0.008592044944226596,0.0011148957002003297,0.03994783399991775
173.90084910000007,8.677646119522786,-0.0,-0.0,0.025108177444788642,-0.34570319404898553,-0.0,-0.044454280778037786,0.3107121525868782,0.0,0.023679042235016823,0.06040803862575245,0.2707400789287893,0.37782608406841756,0.06040803862575245,0.0,0.0,0.0,-0.1215606942981158,-0.19269542691946132,-0.0316748054506318,0.11999502579598725,0.19058850136014832,0.0,0.06917191792639699,0.0,-0.00876387930064454,1.3912019467646797,-1.460416601476318,-2.8516185482409977,-2.8516185482409977,-4.675565769445647,5.6491379737854,0.0,8.69067809022705,1,-0.002606394140853041,-0.024898587368896483,-0.0026417020900599292,5.93405818939209,1,0.08547606468200683,0.05,0.0034895074303382856,-1.460416601476318,1.5707963267948966,-1.4608119436004563,1,0.00023720527448296556,0.008597264516807387,0.0012544429743024316,0.04000366699995084
174.00368947000004,8.678928013775245,-0.0,-0.0,0.012870200390709227,-0.2509125496084678,-0.0,-0.026868992622006913,0.2771827357260392,0.0,0.02295711822807789,0.07577145478917462,0.24777138785814143,0.27999413546437646,0.07577145478917462,0.0,0.0,0.0,-0.09338926933318532,-0.19828639175036536,0.04067992807231983,0.08148420098225677,0.1956586900395986,-0.0,0.0706927032821636,0.0,0.00507875150701102,1.393470874792273,-1.4601127870928956,-2.8535836618851684,-2.8535836618851684,-4.681673771734196,5.6427083015441895,0.0,8.69067809022705,1,-0.002350015290361185,-0.025044647418631036,-0.002184804779019155,5.93405818939209,1,0.08740496635437012,0.05,0.0033733240106471126,-1.4601127870928956,1.5707963267948966,-1.4608119436004563,1,0.00041949390453641653,0.008611447427273941,0.0011383392199358017,0.04016187000001992
174.100863118,8.6796867039314,-0.0,-0.0,0.022433009731984005,-0.3939658922779522,-0.0,-0.03996873177929029,0.3097610040707534,0.0,0.039498887956142426,0.007130752624128309,0.26425685612762506,0.4258278031209657,0.007130752624128309,0.0,0.0,0.0,-0.11428656073826557,-0.2,-0.0798633819063112,0.11063022576924268,0.19902747745903054,0.0,0.062088416924190114,0.0,-0.054957664300061805,1.3948671381938684,-1.4598964710921383,-2.8547636092860067,-2.8547636092860067,-4.681018928574565,5.637953281402588,0.0,8.69067809022705,1,-0.002198277259130066,-0.025133932476748173,-0.0021832172313493727,5.93405818939209,1,0.08883147239685059,0.05,0.004148110432942017,-1.4598964710921383,1.5707963267948966,-1.4608119436004563,1,0.0005492835049908162,0.008625202384314449,0.0011432485901511158,0.04001703699998416
174.20132067400004,8.681041490658735,-0.0,-0.0,0.01425787004147153,-0.2775148002552917,-0.0,-0.023482444631293044,0.2747099485166027,0.0,0.02295807935297489,0.1304806982306646,0.2421886387052458,0.3063081511433035,0.1304806982306646,0.0,0.0,0.0,-0.0955585108513213,-0.2,0.017980189968181588,0.07467138060465695,0.2,-0.0,0.07343932602194991,0.0,0.0570413722087147,1.3974851320718598,-1.4595032199782676,-2.856988352050127,-2.856988352050127,-4.689523727808863,5.62990665435791,0.0,8.69067809022705,1,-0.0019273199136630838,-0.025254767312700283,-0.0019957294827656945,5.93405818939209,1,0.09124546051025391,0.05,0.00411149554597085,-1.4595032199782676,1.5707963267948966,-1.4608119436004563,1,0.0007852341733132207,0.008653653335101995,0.0010202044987721677,0.04002550000006977
174.30085393299998,8.681902824461986,-0.0,-0.0,0.016858965193671353,-0.32164827094656756,-0.0,-0.026541776808410193,0.28160410452101864,0.0,0.028541428968310356,0.08090592464065234,0.24408733037073044,0.3509698805289298,0.08090592464065234,0.0,0.0,0.0,-0.10094371123152214,-0.2,-0.020785701594929464,0.08155256433444451,0.2,-0.0,0.07097617100525057,0.0,0.00992975363540177,1.3994049942490534,-1.45935734644476,-2.858762340693813,-2.858762340693813,-4.689208893766594,5.625476837158203,0.0,8.69067809022705,1,-0.0017550531530130089,-0.02532624477831452,-0.0019432419802384493,5.93405818939209,1,0.09257440567016602,0.05,0.004260641640228621,-1.45935734644476,1.5707963267948966,-1.4608119436004563,1,0.0008727582934177746,0.008676245833183226,0.0009785664897363064,0.040032647999964865
