t,radius,set_speed_r,set_speed_r_filtered,meas_speed_r,acc_cmd_r,set_speed_theta,meas_speed_theta,acc_cmd_theta,set_speed_z,meas_speed_z,acc_cmd_z,acc_x,acc_y,acc_z,pub_vel_x,pub_vel_y,pub_vel_z,pid_r_P,pid_r_I,pid_r_D,pid_vtheta_P,pid_vtheta_I,pid_vtheta_D,pid_z_P,pid_z_I,pid_z_D,yaw_enu,yaw_target,error_yaw,total_yaw_err,yaw_rate,drone_z,target_z,r_lock_position,r_lock_active,r_pid_P,r_pid_I,r_pid_D,z_lock_position,z_lock_active,z_pid_P,z_pid_I,z_pid_D,theta_actual,theta_target,theta_lock_position,theta_lock_active,theta_pid_P,theta_pid_I,theta_pid_D,dt
<<<<<<< HEAD
49.11229261699191,4.020776230905248,0.0,0.0,0.02195058655415746,-0.08678720123960813,0.0,0.013945943104309315,-0.03619648145369166,0.0,-0.0005284418002702296,0.0017527191881424975,-0.08690488052017362,-0.03591302424477831,0.0017527191881424975,0.0,0.0,0.0,-0.08589514828537101,-0.0009404240442703588,0.0,-0.035536889888445826,-0.0005834566068172771,0.0,0.00030585817532706737,0.0,0.0014468610128154302,0.007330382858376172,-0.0032639018935231266,-0.010594284751899163,-0.010594284751899163,0.02237196122076069,8.501961708068848,0.0,4.020722620656969,1,1.6083074483930205e-05,5.361024827976735e-09,-0.0009708747574502346,8.501961708068848,1,0.0,0.0,-1.8678174725117204e-05,-0.0032639018935231266,1.5707963267948966,-0.0033205212729306367,1,3.3971627644506074e-05,1.1323875881502026e-08,-0.00030279580258940104,0.04005018300085794
49.219615648995386,4.020538768995464,0.0,0.0,0.020025916897473753,-0.08776836942822588,0.0,0.01364615942224294,-0.03832117384780759,0.0,-0.00037342036375775933,0.00021885549854712728,-0.08789160084480716,-0.038037685761630156,0.00021885549854712728,0.0,0.0,0.0,-0.08403404541735761,-0.0037806406061498127,0.0,-0.03588011370423362,-0.002373089936031905,0.0,0.00019608525606908163,0.0,2.2770242478045635e-05,0.006108652381980217,-0.003227688580642135,-0.00933634096262237,-0.00933634096262237,-0.008055909488299689,8.501967430114746,0.0,4.020722620656969,1,-5.51554984514091e-05,-1.1952484715953917e-06,-0.002326811133565274,8.501961708068848,1,-1.7166137695312498e-06,-4.563425245185382e-08,-4.4849355620640144e-05,-0.003227688580642135,1.5707963267948966,-0.0033205212729306367,1,5.569961537310111e-05,2.0308682281667468e-06,-0.0007636165430517754,0.04481874400516972
49.312234076991444,4.021211270052355,0.0,0.0,0.011967866345869395,-0.05790658231800169,0.0,0.010887688560311451,-0.03222489188161809,0.0,-0.00041931826854124665,0.0002188590083984672,-0.05800463989154373,-0.03204805272689457,0.0002188590083984672,0.0,0.0,0.0,-0.052860927025048306,-0.005075134411115909,0.0,-0.02886329886834102,-0.003329189244175041,0.0,0.00021499110749575485,0.0,3.867900902712357e-06,0.0026179938779917755,-0.0030512838041028413,-0.005669277682094798,-0.005669277682094798,0.010902328513347787,8.501981735229492,0.0,4.020722620656969,1,0.00014659481861585276,-2.313081176561983e-07,-0.00227474437130835,8.501961708068848,1,-6.008148193359375e-06,-1.7952392550452113e-07,-5.4812083929458e-05,-0.0030512838041028413,1.5707963267948966,-0.0033205212729306367,1,0.00016154248129667727,5.075279803812913e-06,-0.0008242487481254451,0.041206458990927786
49.412613973996486,4.022806468357737,0.0,0.0,0.001314531685315199,-0.013499872281493946,0.0,0.006878086235952121,-0.022589376628637067,0.0,-0.000483016949146986,0.0008067631425432065,-0.013563601831445574,-0.02255116833880385,0.0008067631425432065,0.0,0.0,0.0,-0.007550751804830891,-0.0059608804434030166,0.0,-0.018164268850992947,-0.00442286022674586,0.0,0.0002480738900669845,0.0,0.000558689252476222,-0.0005235987755982663,-0.0028236038202908045,-0.0023000050446926323,-0.0023000050446926323,0.019888300099604135,8.502001762390137,0.0,4.020722620656969,1,0.0006251543102304246,1.5289928397688146e-05,-0.0013394463679344847,8.501961708068848,1,-1.201629638671875e-05,-5.47031372470641e-07,-5.699713794282247e-05,-0.0028236038202908045,1.5707963267948966,-0.0033205212729306367,1,0.00029815047158389933,1.4544041685455987e-05,-0.0007003158177144124,0.03680253699712921
49.5172823920002,4.024745872991145,0.0,0.0,-0.004781367221886758,0.015321552807415532,0.0,0.0041509387604106345,-0.015337020578184,0.0,-0.00016436661826446652,-0.000490902206694269,0.015282098368194962,-0.015376334092067429,-0.000490902206694269,0.0,0.0,0.0,0.02097474075569642,-0.005657469036612031,0.0,-0.010519281896521359,-0.004822669965066711,0.0,6.081490120401544e-05,0.0,-0.0005517171078982845,-0.0022689280275924872,-0.0025692027420372455,-0.0003002747144447149,-0.0003002747144447149,0.0027857090384597336,8.502019882202148,0.0,4.020722620656969,1,0.0012069757002530323,4.235189622660273e-05,-0.00043743061684734696,8.501961708068848,1,-1.7452239990234376e-05,-9.561060192883609e-07,-4.460010358158471e-05,-0.0025692027420372455,1.5707963267948966,-0.0033205212729306367,1,0.00045079111853603475,2.508175443379459e-05,-0.0005326468711677388,0.04025679199548904
49.613257256001816,4.026775728516904,0.0,0.0,-0.008198768188474686,0.03520145864695292,0.0,0.002016988925020592,-0.00941351194601238,0.0,-0.00025195738999173045,0.0002957895077322867,0.035179502262974074,-0.00949523662476379,0.0002957895077322867,0.0,0.0,0.0,0.03984660429744458,-0.0046461559487049,0.0,-0.004248744201303911,-0.005168874460788497,0.0,0.00011304670132090547,0.0,0.00018274280641138123,-0.003665191429187864,-0.0023223508450085006,0.0013428405841793278,0.0013428405841793278,0.0040415838837418285,8.502046585083008,0.0,4.020722620656969,1,0.0018159323579807207,0.00010300389055738613,0.000508056708972429,8.501961708068848,1,-2.5463104248046874e-05,-1.8273705574473055e-06,-3.625574631806048e-05,-0.0023223508450085006,1.5707963267948966,-0.0033205212729306367,1,0.0005989022567532816,4.6157308869750453e-05,-0.0003275683211240042,0.04001773400523234
49.71202737999556,4.030048759278053,0.0,0.0,-0.008522222097861203,0.04279792305762583,0.0,-0.0002754243539514865,-0.0025087859422993027,0.0,-0.0002801906084641814,-0.00011067607757256809,0.04279315051813507,-0.002588917473187478,-0.00011067607757256809,0.0,0.0,0.0,0.04646048616830233,-0.0036625819339164414,-0.0,0.0026111940064916257,-0.0051193975172483495,0.0,0.00012162662342878654,0.0,-0.00023230270100135463,-0.005061454830783685,-0.0018724267409872795,0.0031890280897965972,0.0031890280897965972,0.005036222309221458,8.502070426940918,0.0,4.020722620656969,1,0.0027978415863252337,0.00017257072263603547,0.0008968285713914833,8.501961708068848,1,-3.2615661621093746e-05,-2.6781775856243865e-06,-4.21857302094857e-05,-0.0018724267409872795,1.5707963267948966,-0.0033205212729306367,1,0.0008688567191660143,6.781273004932478e-05,-0.00016761620057017512,0.04018292600812856
49.81484456198814,4.031975459301298,0.0,0.0,-0.006076448424857319,0.038170986002206336,0.0,-0.0010251056459274358,0.0004882638209756717,0.0,-0.0003514975542202592,5.456205056734103e-05,0.03817170479751508,0.000428400269455439,5.456205056734103e-05,0.0,0.0,0.0,0.04039508861369934,-0.002224363238472486,-0.0,0.005420571776760644,-0.004930763055115218,0.0,0.0001571074677084022,0.0,-0.00010254541714106117,-0.005410520681182529,-0.0015682847597724863,0.0038422359214100865,0.0038422359214100865,0.009239757837690077,8.502079963684082,0.0,4.020722620656969,1,0.0033758515932989395,0.00030879869454069416,0.0010109249176228695,8.501961708068848,1,-3.5476684570312496e-05,-4.192617710929714e-06,-4.9982472425013325e-05,-0.0015682847597724863,1.5707963267948966,-0.0033205212729306367,1,0.0010513419078948903,0.00011014969378628629,-1.836853690435419e-05,0.028540928004076704
49.91185320299701,4.034544487082874,0.0,0.0,-0.0002519110544946742,0.018815031711186495,-0.5,-0.0012989409212725107,-1.2662617077659408,0.0,-0.00024835646036081016,-0.000375612118579539,0.017432890169641863,-1.2662814901564907,-0.000375612118579539,0.0,0.0,0.0,0.02040501213864364,-0.001590398627708091,-0.0,-1.2467526476968187,-0.019508978965151788,-0.0,9.234210078539017e-05,0.0,-0.00046795421936492913,-0.005235987755983107,-0.0010915047020377453,0.004144483053945436,0.004144483053945436,0.008272911052871016,8.502104759216309,0.0,4.020722620656969,1,0.004146559927771598,0.00041413961382431093,0.0006287259742143882,8.501961708068848,1,-4.291534423828125e-05,-5.289192236962448e-06,-4.624842257658283e-05,-0.0010915047020377453,1.5707963267948966,-0.0,0,0.001149268890273715,0.00012108342733782872,5.751190769572486e-06,0.029487756997696124
50.029014490995905,4.035835596651062,0.0,0.0,0.004098931880439854,0.0024378089140693277,-0.5,-0.001572763534288335,-1.3252142541859786,0.0,-0.0002475949586369097,0.0002557403197620107,0.0013806189648171332,-1.325215777260924,0.0002557403197620107,0.0,0.0,0.0,0.003728389381900893,-0.001291193373158244,-0.0,-1.2460680911642792,-0.07914776037383048,0.0,9.194610129245187e-05,0.0,0.00016379421846955886,-0.004886921905584263,-0.0007977497090223873,0.004089172196561908,0.004089172196561908,0.009564310213361214,8.502129554748535,0.0,4.020722620656969,1,0.004533892798228134,0.0005735384327489211,-1.426218203029614e-05,8.501961708068848,1,-5.035400390625e-05,-7.023163688690826e-06,-3.697428888788243e-05,-0.0007977497090223873,1.5707963267948966,-0.0,0,0.001149268890273715,0.00012108342733782872,5.751190769572486e-06,0.04114116099663079
50.1144240579888,4.036887011019558,0.0,0.0,0.008087960544206147,-0.013007365295880933,-0.5,-0.00987674905805584,-1.3464560431341475,0.0,-4.1407602111576125e-05,-0.000701043189512806,-0.01354261892133144,-1.3464507659462182,-0.000701043189512806,0.0,0.0,0.0,-0.011556616944292506,-0.0014749130536693906,-0.0,-1.2253081273548603,-0.12116770398650437,0.0,-3.144514174729737e-05,0.0,-0.0006695980477655087,-0.0043633231299859965,-0.0003975285120130113,0.003965794617973195,0.003965794617973195,0.008483414711690819,8.502155303955078,0.0,4.020722620656969,1,0.0048493171087767625,0.0007023906766304038,-0.0005455117596790205,8.501961708068848,1,-5.8078765869140624e-05,-8.544655619123488e-06,-2.7192750202140975e-05,-0.0003975285120130113,1.5707963267948966,-0.0,0,0.001149268890273715,0.00012108342733782872,5.751190769572486e-06,0.045361116994172335
50.21232979898923,4.038049759425973,0.0,0.0,0.013461809189374225,-0.032430092145361515,-0.5,-0.09715874832535783,-1.1783028784567209,0.0,-0.0011942884884774685,0.002991420355029842,-0.030060083312015467,-1.178365722366034,0.002991420355029842,0.0,0.0,0.0,-0.032549095885789664,-0.0022187144499222692,0.0,-1.0071031291866055,-0.1715236513042548,0.0,0.0006261108208974485,0.0,0.0023653095341323936,-0.0029670597283901756,0.002011320584953721,0.004978380313343855,0.004978380313343855,0.0377802286692865,8.502155303955078,0.0,4.020722620656969,1,0.005198141630701247,0.0009026254677066393,-0.0013187168119109056,8.501961708068848,1,-5.8078765869140624e-05,-1.0926287100959665e-05,-8.176540067828748e-05,0.002011320584953721,1.5707963267948966,-0.0,0,0.001149268890273715,0.00012108342733782872,5.751190769572486e-06,0.040070563001791015
50.31189406599151,4.03880937153413,0.0,0.0,0.012692449615767286,-0.02389411229374544,-0.5,-0.1845667497484126,-0.9880031021724424,0.0,-0.001590781845152378,0.002974528082745469,-0.01874192448223163,-0.9881142640258656,0.002974528082745469,0.0,0.0,0.0,-0.029441579907720155,-0.0028869203402539165,0.0,-0.7885831256289686,-0.2,0.0,0.0008379547835491971,0.0,0.002136573299196272,-0.002094395102393065,0.005214443459136142,0.007308838561529196,0.007308838561529196,0.08663869649360771,8.502079963684082,0.0,4.020722620656969,1,0.005426025263148481,0.0010445667507908054,-0.0016292303735640416,8.501961708068848,1,-3.5476684570312496e-05,-1.2176127912602587e-05,-0.00014653772675413446,0.005214443459136142,1.5707963267948966,-0.0,0,0.001149268890273715,0.00012108342733782872,5.751190769572486e-06,0.04011929000262171
50.412753956989036,4.039479770417389,0.0,0.0,0.009160496836803658,0.002530814854779344,-1.5,-0.28759342855309544,-2.249347812381228,0.0,-0.0015063429018482566,0.00044254366299681884,0.025639650976976073,-2.249203102075449,0.00044254366299681884,0.0,0.0,0.0,-0.014406802139816918,-0.0035377869801037306,0.0,-3.0310164286172614,-0.2,-0.0,0.0007676365863936429,0.0,-0.00032509292339682403,0.0005235987755982663,0.010273811855179981,0.009750213079581904,0.009750213079581904,0.09968168170068556,8.501983642578125,0.0,4.020722620656969,1,0.005627144928125993,0.0012676476201536374,-0.0015761096154271504,8.501961708068848,1,-6.5803527832031245e-06,-1.2827980519967975e-05,-0.00020754025788901403,0.010273811855179981,1.5707963267948966,-0.0,0,0.001149268890273715,0.00012108342733782872,5.751190769572486e-06,0.03969825599051546
50.51705051299359,4.041923406110756,0.0,0.0,-0.001541605815294337,0.07977806758622986,-2.4622926530301257,-0.45366854905319487,-2.250173031006075,0.0,-0.0008009878802113235,-0.000494530726435064,0.1288411320706261,-2.2478975003815496,-0.000494530726435064,0.0,0.0,0.0,0.03192096043387763,-0.003062994918080565,0.0,-5.021560259942327,-0.2,-0.0,0.0003794766912358156,0.0,-0.0008740074176708795,0.004014257279587152,0.021814295047893412,0.017800037768306076,0.017800037768306076,0.15724876751102013,8.50192642211914,0.0,4.020722620656969,1,0.006360235636136302,0.0014327586962701246,-0.0008223440320000619,8.501961708068848,1,1.0585784912109375e-05,-1.2591288678648338e-05,-0.0001665212243850918,0.021814295047893412,1.5707963267948966,-0.0,0,0.001149268890273715,0.00012108342733782872,5.751190769572486e-06,0.039911321000545286
50.612389881993295,4.045870543125347,0.0,0.0,-0.017963510202138447,0.2100712425608251,-2.4634946345969624,-0.6532814991566123,-2.2529005448270976,0.0,-0.0016979166539385915,0.0030229214181212386,0.2965206895801089,-2.2431598856265724,0.0030229214181212386,0.0,0.0,0.0,0.10534229629616224,-0.0007555749505500896,0.0,-4.525532838600875,-0.2,0.0,0.0009160407320637199,0.0,0.0021068806860575187,0.013089969389957545,0.03845090474328119,0.025360935353323732,0.025360935353323732,0.22613691468726005,8.501864433288574,0.0,4.020722620656969,1,0.00754437674051358,0.0017125626179609306,0.0008708294516969741,8.501961708068848,1,2.9182434082031248e-05,-1.1796670775583719e-05,-0.00018856786380550572,0.03845090474328119,1.5707963267948966,-0.0,0,0.001149268890273715,0.00012108342733782872,5.751190769572486e-06,0.03977411599771585
50.71182206799858,4.0478057130195975,0.0,0.0,-0.024350824240521974,0.27120505095760916,-2.46408371804397,-0.7328343029152874,-2.2544085908694473,0.0,-0.002153865061700344,0.003369380956938283,0.3733445811575633,-2.2397598304218183,0.003369380956938283,0.0,0.0,0.0,0.13665103918870314,0.0018781489423012356,0.0,-4.328123537821707,-0.2,0.0,0.0011693871257217536,0.0,0.0021999938312165295,0.017976891295541808,0.04544642759030634,0.027469536294764563,0.027469536294764563,0.26689726765480193,8.501729011535645,0.0,4.020722620656969,1,0.008124927708788653,0.001922309702967574,0.002042215464709301,8.501961708068848,1,4.6634674072265624e-05,-1.0779988912551497e-05,-0.00024074120399046874,0.04544642759030634,1.5707963267948966,-0.0,0,0.001149268890273715,0.00012108342733782872,5.751190769572486e-06,0.04035554399888497
50.82019311399199,4.054942090548407,0.0,0.0,-0.042505079612031135,0.48145978846165194,-2.4662548805471447,-1.003356979506911,-2.2605174790023845,0.0,-0.0023532635532319546,0.0008457452565964719,0.6416506814783087,-2.2203664570829873,0.0008457452565964719,0.0,0.0,0.0,0.22474830082645278,0.00844031486758059,0.0,-3.657244752600584,-0.2,0.0,0.0012821530443414284,0.0,-0.00043640778774495643,0.03804817769347668,0.07146924737609067,0.033421069682614046,0.033421069682614046,0.3692078022891594,8.501564025878906,0.0,4.020722620656969,1,0.010265840967431394,0.0023978578941927444,0.00476410174673214,8.501961708068848,1,0.00011930465698242187,-5.6932671198786646e-06,-0.0003299532025254505,0.07146924737609067,1.5707963267948966,-0.0,0,0.001149268890273715,0.00012108342733782872,5.751190769572486e-06,0.019293021992780268
50.91281234299822,4.057785168016306,0.0,0.0,-0.04851122388421594,0.5665596170732967,-2.4671193226158437,-1.100219352249976,-2.2631532314079696,0.0,-0.0017746888333931565,-0.0012618698274000327,0.749958058736329,-2.209166190821101,-0.0012618698274000327,0.0,0.0,0.0,0.2549521819183945,0.013296269594327424,0.0,-3.4172499259146694,-0.2,0.0,0.0009629467931282458,0.0,-0.0022248166205282786,0.05707226654021458,0.08196898580707132,0.02489671926685677,0.02489671926685677,0.3854875917113668,8.501378059387207,0.0,4.020722620656969,1,0.011118764207801135,0.0026314243603768094,0.005725836059177974,8.501961708068848,1,0.00014562606811523436,-2.7316035321231505e-06,-0.0003126719760958579,0.08196898580707132,1.5707963267948966,-0.0,0,0.001149268890273715,0.00012108342733782872,5.751190769572486e-06,0.03135634999489412
51.023056949998136,4.075707676259859,0.0,0.0,-0.0816772898672983,1.0610834926597275,-2.4725617311585544,-1.5935001849519246,-2.2819337859454505,0.0,0.0022689837496727705,-0.0092986194661703,1.3872941347335355,-2.099651153303385,-0.0092986194661703,0.0,0.0,0.0,0.41326893196073583,0.024795678792329415,0.0,-2.1976538655165747,-0.2,0.0,-0.0012615098938915368,0.0,-0.008037109572278763,0.10681415022205298,0.14862654953031762,0.04181239930826486,0.04181239930826486,0.512413361289447,8.501391410827637,0.0,4.020722620656969,1,0.016495516680867173,0.003170122936428944,0.008862119038268468,8.501961708068848,1,0.00017108917236328126,3.7239189716695155e-06,-8.345831481408264e-06,0.14862654953031762,1.5707963267948966,-0.0,0,0.001149268890273715,0.00012108342733782872,5.751190769572486e-06,0.04211764100182336
51.11213337400113,4.085127337061087,0.0,0.0,-0.09585315473228315,1.306482242263796,-2.475417339680651,-1.789207037968712,-1.95750758860423,0.0,0.0031350182835012674,-0.0054659174542765684,1.6394683630978004,-1.6884535217752379,-0.0054659174542765684,0.0,0.0,0.0,0.4882193345792228,0.03462470975759844,0.0,-1.7155257542798474,-0.2,0.0,-0.0016652045523928732,0.0,-0.0038007129018836957,0.14014993893514482,0.18215492869523128,0.042004989760086264,0.042004989760086264,0.5418573432809662,8.501506805419922,0.0,4.020722620656969,1,0.019321414921235645,0.003667728341985385,0.011349524558955227,8.501961708068848,1,0.00013647079467773437,7.66824408961614e-06,0.00021553832407912794,0.18215492869523128,1.5707963267948966,-0.0,0,0.001149268890273715,0.00012108342733782872,5.751190769572486e-06,0.040057076010270976
51.21310162899317,4.100768537097302,0.0,0.0,-0.1108735415903469,1.6790777849311422,-2.480151770687825,-2.075926397770233,-1.2666907922557775,0.0,0.004250858444720507,-0.006389127826049095,1.9320322444936513,-0.8312996916104713,-0.006389127826049095,0.0,0.0,0.0,0.5762531354652511,0.05193129375122757,0.0,-1.0105634322939794,-0.2,0.0,-0.002237025492077945,0.0,-0.00415210233397115,0.20210912738094322,0.23998135538046267,0.03787222799951939,0.03787222799951939,0.569525681773956,8.501725196838379,0.0,4.020722620656969,1,0.024013774932100062,0.004542584289878454,0.014237601978408216,8.501961708068848,1,7.095336914062499e-05,1.1780828612212303e-05,0.0004397484268377611,0.23998135538046267,1.5707963267948966,-0.0,0,0.001149268890273715,0.00012108342733782872,5.751190769572486e-06,0.039955618005478755
51.31186463699851,4.106379273424014,0.0,0.0,-0.11352538982811744,1.8049305260741964,-2.481847882150721,-2.16366503282844,-1.0552740325471381,0.0,0.004768024664372206,-0.003926499553911197,2.015868990941786,-0.5546617880133056,-0.003926499553911197,0.0,0.0,0.0,0.6001983551550646,0.0646897971953395,-0.0,-0.7954571233057028,-0.2,-0.0,-0.0024834593530570536,0.0,-0.0014430402008541437,0.22462387473167045,0.260561550861499,0.03593767612982868,0.03593767612982868,0.6350223188805257,8.501948356628418,0.0,4.020722620656969,1,0.02569699583011351,0.00522689977731218,0.015603609272474096,8.501961708068848,1,4.1484832763671875e-05,1.2885576954838053e-05,0.0005745553328919394,0.260561550861499,1.5707963267948966,-0.0,0,0.001149268890273715,0.00012108342733782872,5.751190769572486e-06,0.04000674698909279
51.41725959799078,4.123613722076166,0.0,0.0,-0.11499374012539065,2.112699483336163,-2.487050579122638,-2.397724285196819,-0.4901802138679928,0.0,0.006325453519821167,-0.006814195260163719,2.158235418267441,0.213999131522828,-0.006814195260163719,0.0,0.0,0.0,0.633523103258491,0.08499105252278281,0.0,-0.22331573481454758,-0.2,0.0,-0.003368900628920866,-0.0,-0.0034452946312428525,0.29792770331543217,0.3268139404111758,0.02888623709574345,0.02888623709574345,0.652650649873579,8.502211570739746,0.0,4.020722620656969,1,0.03086733042575913,0.006404346506207303,0.016674077144907214,8.501961708068848,1,-7.495880126953124e-05,1.1459405620513341e-05,0.0007741185339354078,0.3268139404111758,1.5707963267948966,-0.0,0,0.001149268890273715,0.00012108342733782872,5.751190769572486e-06,0.04059577999578323
51.54779186099768,4.134657144448123,0.0,0.0,-0.11035252777200233,2.272558582672258,-2.4903786291791423,-2.5250801571008417,-0.17923903746528447,0.0,0.006915499456226826,-0.005942935808825064,2.1807886031894577,0.6639353977818913,-0.005942935808825064,0.0,0.0,0.0,0.631982312327345,0.09848231260383969,-0.0,0.08675381980424834,-0.19859936648465285,0.0,-0.003724209550597787,-0.0,-0.0022187262582272767,0.37838738183237064,0.37424005327304316,-0.004147328559327423,-0.004147328559327423,0.30812683329821217,8.502823829650879,0.0,4.020722620656969,1,0.03418035713734619,0.007293888247663087,0.01670184346361374,8.501961708068848,1,-0.00019655227661132812,7.049969803493706e-06,0.0008979858453716815,0.37424005327304316,1.5707963267948966,-0.0,0,0.001149268890273715,0.00012108342733782872,5.751190769572486e-06,0.04036230100609828
51.615378841990605,4.151010071891387,0.0,0.0,-0.09294098903032688,2.4212997247103187,-2.4952986009367857,-2.6706333555869177,0.19595775750397454,0.0,0.005683348048478365,-0.002063359231305624,2.096393227594747,1.2272844963182454,-0.002063359231305624,0.0,0.0,0.0,0.5853735337010672,0.1177220921394912,0.0,0.4383368866253301,-0.18258372966270464,-0.0,-0.003103023621157052,-0.0,0.0010396643898514279,0.43493604959698695,0.4488800780707285,0.013944028473741543,0.013944028473741543,0.7299594685217897,8.503210067749023,0.0,4.020722620656969,1,0.03908623537032563,0.00879392785093959,0.015278456735359136,8.501961708068848,1,-0.00037450790405273436,-6.173808652838731e-06,0.0008923237259221843,0.4488800780707285,1.5707963267948966,-0.0,0,0.001149268890273715,0.00012108342733782872,5.751190769572486e-06,0.041420566994929686
51.712176183995325,4.164347606464723,0.0,0.0,-0.05722049461406775,2.4275576974908315,-2.499304185107744,-2.766437633196399,0.4662246361691944,0.0,0.0035102565307170153,0.004304680127208402,1.8644552871641282,1.6230244200824009,0.004304680127208402,0.0,0.0,0.0,0.46134737575835616,0.12842493453652642,-0.0,0.6678336202216373,-0.16359656418510782,0.0,-0.0019656630235955646,-0.0,0.006270343150803966,0.5204571829447091,0.5265359335065074,0.006078750561798074,0.006078750561798074,0.6680559232400622,8.503647804260254,0.0,4.020722620656969,1,0.04308749574232635,0.009914372168028545,0.012803604344472324,8.501961708068848,1,-0.000505828857421875,-1.8696783621387216e-05,0.0007586771324343363,0.5265359335065074,1.5707963267948966,-0.0,0,0.001149268890273715,0.00012108342733782872,5.751190769572486e-06,0.040068390997475944
51.8147270269983,4.171320845231471,0.0,0.0,-0.02105506208870933,2.3471374964268525,-2.5013958638822458,-2.8049570890268214,0.6159684916991206,0.0,0.0018251144792884588,0.003324587804311176,1.627338059827999,1.8000673456663354,0.003324587804311176,0.0,0.0,0.0,0.3205414514471468,0.14043466751672912,-0.0,0.758903062861439,-0.12877633499279942,0.0,-0.0011599088200922947,-0.0,0.004484496624403471,0.6051056516664342,0.5791055685281224,-0.02600008313831159,-0.02600008313831159,0.19734661502300688,8.503812789916992,0.0,4.020722620656969,1,0.04517946737235077,0.011841091433994219,0.007402099490851501,8.501961708068848,1,-0.0005450248718261719,-4.187815680667812e-05,0.00047883614110081745,0.5791055685281224,1.5707963267948966,-0.0,0,0.001149268890273715,0.00012108342733782872,5.751190769572486e-06,0.02979709699866362
51.911625526990974,4.175283306429022,0.0,0.0,0.05044839163589554,2.096867690574697,-2.50258365687214,-2.828788151311735,0.7469267757574087,0.0,-0.00016092427540570498,0.004817883463982716,1.2015867380885106,1.8737510589641397,0.004817883463982716,0.0,0.0,0.0,0.03797741688739579,0.14236346155930238,-0.0,0.815511236098988,-0.10276365299483395,-0.0,-0.00010383262085072283,-0.0,0.004921716084833439,0.6621779182066487,0.658383255674109,-0.003794662532539572,-0.003794662532539572,0.5912154892807133,8.50378704071045,0.0,4.020722620656969,1,0.04636820573161602,0.012917248730332634,0.0012902483439190921,8.501961708068848,1,-0.0005475997924804687,-5.471560903741596e-05,0.0002683367580276416,0.658383255674109,1.5707963267948966,-0.0,0,0.001149268890273715,0.00012108342733782872,5.751190769572486e-06,0.04003247000218835
52.02942311899096,4.173865778087017,0.0,0.0,0.10704658501783282,1.8415181004473737,-2.502158801341459,-2.821946599300615,0.8083848827339206,0.0,-0.0008313415455631912,0.002068905736624877,0.8668616431199861,1.8147247517448357,0.002068905736624877,0.0,0.0,0.0,-0.20476624494637574,0.13836899001446976,-0.0,0.7994694948978898,-0.06345870434099836,-0.0,0.00016142270985213528,-0.0,0.001907483026772742,0.7192501847468633,0.7115120219268597,-0.007738162820003502,-0.007738162820003502,0.674119610523561,8.503680229187012,0.0,4.020722620656969,1,0.045942947229014576,0.014777412547564973,-0.008278106744446937,8.501961708068848,1,-0.0005155563354492188,-7.59684975798175e-05,2.922113721940394e-05,0.7115120219268597,1.5707963267948966,-0.0,0,0.001149268890273715,0.00012108342733782872,5.751190769572486e-06,0.04070455700275488
52.11220401899482,4.162764171648754,0.0,0.0,0.1877540306965415,1.4408076650509705,-2.4988289772357635,-2.7814305216161928,0.7934728955459412,0.0,-0.0006272619357332587,-0.00044566699337377825,0.44977243271921663,1.582160144360086,-0.00044566699337377825,0.0,0.0,0.0,-0.5460434043058187,0.12838505312940995,-0.0,0.7065038609510732,-0.03848241304959114,-0.0,1.6053405970517e-05,-0.0,-0.00046172039934429525,0.8038986534685884,0.7904343856183259,-0.013464267850262335,-0.013464267850262335,1.0190316380141464,8.50352954864502,0.0,4.020722620656969,1,0.042612465297535616,0.015948666452934017,-0.016418675535479772,8.501961708068848,1,-0.0004703521728515625,-8.893102189713454e-05,-4.122306436703339e-05,0.7904343856183259,1.5707963267948966,-0.0,0,0.001149268890273715,0.00012108342733782872,5.751190769572486e-06,0.04488425400631968
52.21482830400055,4.143987646557637,0.0,0.0,0.24384263290563934,1.0706106366048442,-2.4931870106023846,-2.713350536716124,0.6998822227645587,0.0,-3.2224088499788195e-05,-0.0015364497884948034,0.1572621860636232,1.2693742024272352,-0.0015364497884948034,0.0,0.0,0.0,-0.8127280601132112,0.10672357065380848,-0.0,0.5504088152843489,-0.010186947544834249,-0.0,-0.00033813713861937744,-0.0,-0.001198312649875426,0.8887216551155124,0.8685472401397882,-0.02017441497572392,-0.02017441497572392,0.5281027605883838,8.503461837768555,0.0,4.020722620656969,1,0.03697950777020047,0.017531228355012096,-0.027395585916429557,8.501961708068848,1,-0.00045003890991210935,-0.0001071830606335686,-3.856401565307267e-05,0.8685472401397882,1.5707963267948966,-0.0,0,0.001149268890273715,0.00012108342733782872,5.751190769572486e-06,0.040103010993334465
52.31471501899068,4.136645339993683,0.0,0.0,0.25250220610969487,0.9668924306608311,-2.490977320248124,-2.687995588516298,0.663410152568202,0.0,0.00015738954243715852,-0.001463775057654972,0.08798234805944649,1.169295988802545,-0.001463775057654972,0.0,0.0,0.0,-0.8681419723212711,0.08837262996819613,-0.0,0.49254567067043453,0.006788337986786349,-0.0,-0.00044240200118262165,-0.0,-0.0010213730564723503,0.9168214560726211,0.8943401621663561,-0.022481293906265076,-0.022481293906265076,0.6079390196140481,8.50344467163086,0.0,4.020722620656969,1,0.034776815801014216,0.018489863283030445,-0.03226899892668877,8.501961708068848,1,-0.0004468917846679687,-0.00011916548195372579,-1.3889859578849792e-05,0.8943401621663561,1.5707963267948966,-0.0,0,0.001149268890273715,0.00012108342733782872,5.751190769572486e-06,0.04140265699243173
52.41381968499627,4.114464405424573,0.0,0.0,0.2404026820455747,0.8620340772379687,-2.4842899605595274,-2.6100343493623077,0.49045569998749616,0.0,1.0359291081840638e-05,0.00014111507777099362,0.08216745742601561,0.9883815320562627,0.00014111507777099362,0.0,0.0,0.0,-0.854408469656275,0.06075212559184723,0.0,0.3143609720069507,0.02359389288022878,-0.0,-0.0003503389313281765,-0.0,0.0004914540090991701,0.9986773979911554,0.9705768177755376,-0.02810058021561801,-0.02810058021561801,0.5831320217960918,8.503435134887695,0.0,4.020722620656969,1,0.02812253543028129,0.019688634936588695,-0.03525074689630196,8.501961708068848,1,-0.0004420280456542969,-0.00013715073991422272,5.6398577700661074e-06,0.9705768177755376,1.5707963267948966,-0.0,0,0.001149268890273715,0.00012108342733782872,5.751190769572486e-06,0.038131480003357865
52.530988310987595,4.09595968400439,0.0,0.0,0.1779693635253955,0.9907606646069891,-2.4786971428568245,-2.538854566474943,0.2908714450524685,0.0,-0.0016365658957511187,0.005709699502238566,0.2452592946833696,1.0030258074699825,0.005709699502238566,0.0,0.0,0.0,-0.6283387973534917,0.045406601925053865,0.0,0.1503935590452965,0.030164707622234253,-0.0,0.0006050988287593999,-0.0,0.0051046006734791665,1.076519082630103,1.045422285318935,-0.03109679731116799,-0.03109679731116799,0.5655906014663369,8.503290176391602,0.0,4.020722620656969,1,0.022571119004226325,0.020322633678375873,-0.032481401784804506,8.501961708068848,1,-0.00039854049682617185,-0.0001481045389366581,-8.142281205595572e-05,1.045422285318935,1.5707963267948966,-0.0,0,0.001149268890273715,0.00012108342733782872,5.751190769572486e-06,0.039822057995479554
52.61230347798846,4.08671967039006,0.0,0.0,0.09145582129589258,1.262528161441329,-2.4758997365776123,-2.4827202326616837,0.1064155422316804,0.0,-0.0037387229967862368,0.006689591439972158,0.45569459097768755,1.1822199735305452,0.006689591439972158,0.0,0.0,0.0,-0.27729829726615723,0.03155081202498057,0.0,0.017051240210178564,0.03380403945415721,-0.0,0.0017861437198320132,-0.0,0.004903447720140145,1.15121917461546,1.1188009148074736,-0.032418259807986516,-0.032418259807986516,0.5619336332005908,8.502901077270508,0.0,4.020722620656969,1,0.01979911491992752,0.021155331016909126,-0.02344483724525266,8.501961708068848,1,-0.0002818107604980469,-0.00016147830206835747,-0.0003185277344998103,1.1188009148074736,1.5707963267948966,-0.0,0,0.001149268890273715,0.00012108342733782872,5.751190769572486e-06,0.03981724500772543
52.711632915990776,4.086495706417771,0.0,0.0,0.03667190998363856,1.464233565596085,-2.475831892440732,-2.4588294870200245,0.012956599837154921,0.0,-0.0047715590335428715,0.007999393594662419,0.563767651584631,1.351411796279844,0.007999393594662419,0.0,0.0,0.0,-0.04348354603943054,0.028248422424790143,0.0,-0.04250601355176853,0.033397259576975445,-0.0,0.0023742754440924736,-0.0,0.005625118150569945,1.1993902619705032,1.1667284230981008,-0.032661838872402704,-0.032661838872402704,0.9154811426231902,8.502513885498047,0.0,4.020722620656969,1,0.01973192572824063,0.021681411095738314,-0.016337039117521858,8.501961708068848,1,-0.00016565322875976561,-0.0001674290477544735,-0.0004813510168745102,1.1667284230981008,1.5707963267948966,-0.0,0,0.001149268890273715,0.00012108342733782872,5.751190769572486e-06,0.039983341994229704
52.81315202699625,4.090101217778424,0.0,0.0,-0.007470233403135018,1.6650221267920269,-2.4769238637204083,-2.4465106639000007,-0.050518704509287006,0.0,-0.0054167830385267735,0.004114919674862153,0.6276314537517023,1.5430261114037784,0.004114919674862153,0.0,0.0,0.0,0.1692074008407348,0.0324244307283651,-0.0,-0.07603299955101894,0.029982645507767244,0.0,0.0027182799481888517,-0.0,0.0013966397266733013,1.2472122834751485,1.2148133131831484,-0.03239897029200023,-0.03239897029200023,0.5442496481948824,8.502063751220703,0.0,4.020722620656969,1,0.020813579136436732,0.02250717304942946,-0.005669012031471933,8.501961708068848,1,-3.0612945556640626e-05,-0.00016958819372103198,-0.0006861153189343481,1.2148133131831484,1.5707963267948966,-0.0,0,0.001149268890273715,0.00012108342733782872,5.751190769572486e-06,0.039900193005451
52.91587323699787,4.099213246912335,0.0,0.0,-0.042157159603782635,1.8357700830291617,-2.4796814050132534,-2.4495296119895262,-0.0731075934598108,0.0,-0.005852898582816124,0.004707046539266892,0.5846266289306894,1.741725645074883,0.004707046539266892,0.0,0.0,0.0,0.3329547314871514,0.039072199235135906,0.0,-0.07537948255931792,0.027463359898109035,0.0,0.003056105158718274,-0.0,0.0016509413805486175,1.319119848657314,1.2867566574777256,-0.0323631911795883,-0.0323631911795883,0.5428421784722487,8.501349449157715,0.0,4.020722620656969,1,0.023547187876609855,0.0231186766887653,-3.509577258408603e-05,8.501961708068848,1,0.00018367767333984374,-0.00016566738829885825,-0.0007774002699933189,1.2867566574777256,1.5707963267948966,-0.0,0,0.001149268890273715,0.00012108342733782872,5.751190769572486e-06,0.040150137996533886
53.034344300991506,4.106833186418106,0.0,0.0,-0.04544624756714355,1.9033202659971384,-2.481985048227962,-2.4633880396150234,-0.04888979342593116,0.0,-0.0051979548297822475,0.002605084550194839,0.492416212945595,1.8391695191267623,0.002605084550194839,0.0,0.0,0.0,0.3740541152726228,0.051660326902152054,0.0,-0.0464925215323464,0.024862599063074853,-0.0,0.002745796845007169,-0.0,-0.00014071229481233002,1.3665928043115603,1.3348746033629793,-0.03171820094858102,-0.03171820094858102,0.539875330036794,8.500894546508789,0.0,4.020722620656969,1,0.025833169728341154,0.024138842662509315,0.004329504114705385,8.501961708068848,1,0.0003201484680175781,-0.00015371076304947912,-0.0007880644597383981,1.3348746033629793,1.5707963267948966,-0.0,0,0.001149268890273715,0.00012108342733782872,5.751190769572486e-06,0.048204620004980825
53.11222293699393,4.113313629626857,0.0,0.0,-0.034525690636626805,1.9008433924909518,-2.4839425203575636,-2.4821445412290783,-0.0005962713917513213,0.0,-0.00420374795794487,0.0011729984848188857,0.3550862744433829,1.867383114419214,0.0011729984848188857,0.0,0.0,0.0,0.3447370526870676,0.0582770765117934,0.0,-0.004494947821213069,0.024732914287867228,-0.0,0.002281000247463107,0.0,-0.0011080017626442212,1.4135421611902075,1.3832015539929166,-0.030340607197290925,-0.030340607197290925,0.540010756189955,8.500282287597656,0.0,4.020722620656969,1,0.02777730269096654,0.024882003609325992,0.004744883779632028,8.501961708068848,1,0.0004506111145019531,-0.00014165499988827435,-0.000711036993453371,1.3832015539929166,1.5707963267948966,-0.0,0,0.001149268890273715,0.00012108342733782872,5.751190769572486e-06,0.040069940994726494
53.21406135999132,4.122396841057606,0.0,0.0,0.009133519532321305,1.8010249621735466,-2.4866835869459565,-2.5258766291352988,0.13093899917896762,0.0,-0.001233014278113842,-0.00616096988718422,0.03032181083001373,1.8055238917461611,-0.00616096988718422,0.0,0.0,0.0,0.1867858215663114,0.06658300957471437,-0.0,0.09798260547335569,0.027360099991559285,0.0,0.000759892543733577,0.0,-0.006920862430917797,1.505870078620708,1.4814291912521906,-0.024440887368517572,-0.024440887368517572,0.5974810809796841,8.499862670898438,0.0,4.020722620656969,1,0.0305022661201912,0.026064139304491314,0.002376666525321834,8.501961708068848,1,0.0006297111511230468,-0.00011918821040438621,-0.0004770496459432076,1.4814291912521906,1.5707963267948966,-0.0,0,0.001149268890273715,0.00012108342733782872,5.751190769572486e-06,0.03979752800660208
53.312391629995545,4.123484888679788,0.0,0.0,0.02115258482011978,1.7649919785544759,-2.48701172755974,-2.5359506485476873,0.16665793737465706,0.0,-0.0002542677102610469,-0.0020987366303866486,-0.052149129660788496,1.772075625002285,-0.0020987366303866486,0.0,0.0,0.0,0.1358484466639387,0.06952930618436332,0.0,0.12234730246986847,0.03130175706451666,-0.0,0.00032345266791512003,0.0,-0.0024221892983017686,1.5285593588966337,1.5060710564891908,-0.02248830240744315,-0.02248830240744315,0.5601957389276895,8.499770164489746,0.0,4.020722620656969,1,0.030828680406845787,0.026880690742159402,-0.0003305338851684253,8.501961708068848,1,0.0006497383117675781,-0.0001019787565588029,-0.00026293948561128877,1.5060710564891908,1.5707963267948966,-0.0,0,0.001149268890273715,0.00012108342733782872,5.751190769572486e-06,0.04087966700899415
53.41327112799627,4.122967165624562,0.0,0.0,0.061273630716890334,1.6350257882353885,-2.486855594608751,-2.5629452073027035,0.26779217907343533,0.0,0.0027796118520200253,-0.006150230459636893,-0.32663636088322134,1.6242938980112616,-0.006150230459636893,0.0,0.0,0.0,-0.02841554661466579,0.07024695037795547,-0.0,0.19022403173488134,0.039478841294783774,0.0,-0.0012689597312946811,0.0,-0.004881270728342212,1.6205382104767354,1.6069006646762694,-0.013637545800466278,-0.013637545800466278,0.5131439191839386,8.499848365783691,0.0,4.020722620656969,1,0.03067336349027805,0.028123757378267545,-0.005100969248899464,8.501961708068848,1,0.000634002685546875,-7.595251441806089e-05,0.00010662879540007614,1.6069006646762694,1.5707963267948966,-0.0,0,0.001149268890273715,0.00012108342733782872,5.751190769572486e-06,0.03930276399478316
53.51754814699234,4.122106374451946,0.0,0.0,0.06783843747421056,1.606585278300016,-2.4865959787786034,-2.5655802738587115,0.2853635100925205,0.0,0.0032060816884040833,-0.004415476359495448,-0.38282839593292073,1.5861875704373967,-0.004415476359495448,0.0,0.0,0.0,-0.05949893028797597,0.06927870584594431,-0.0,0.19746073770027017,0.04568043721139943,0.0,-0.001427288650249854,0.0,-0.002988187709245594,1.6430529578274617,1.6318308144693328,-0.011222143358128989,-0.011222143358128989,0.6205431840816769,8.500020980834961,0.0,4.020722620656969,1,0.03041512613849333,0.02893015263592376,-0.0073732227103334505,8.501961708068848,1,0.0006108283996582031,-5.9521980180116124e-05,0.0002759608518429063,1.6318308144693328,1.5707963267948966,-0.0,0,0.001149268890273715,0.00012108342733782872,5.751190769572486e-06,0.04007675900356844
53.61326727499545,4.116714037469748,0.0,0.0,0.0804149150925434,1.5374090980440782,-2.4849690252002383,-2.5584748091652694,0.2886154775171632,0.0,0.0037652389146387577,-0.0028691551104516044,-0.5309587793967548,1.471396752474558,-0.0028691551104516044,0.0,0.0,0.0,-0.11864622568517139,0.06600236169341768,-0.0,0.18376445991257762,0.054874377820324616,-0.0,-0.0017128892495920343,-0.0,-0.0011562658608595703,1.7332864801555683,1.7315386820091798,-0.0017477981463884795,-0.0017477981463884795,0.6163750024460445,8.500319480895996,0.0,4.020722620656969,1,0.02879742504383387,0.030114055874254267,-0.010135559341590446,8.501961708068848,1,0.0004926681518554688,-3.811230431642748e-05,0.0004558676511129924,1.7315386820091798,1.5707963267948966,-0.0,0,0.001149268890273715,0.00012108342733782872,5.751190769572486e-06,0.03937205899273977
53.71237336398917,4.115199996165496,0.0,0.0,0.08094848684263661,1.524815181247299,-2.4845120233656033,-2.5536945383304013,0.2837131188496155,0.0,0.0036382232792675495,-0.0018279492128940957,-0.560184561123984,1.446287567618535,-0.0018279492128940957,0.0,0.0,0.0,-0.12320506076928142,0.06332064025359026,0.0,0.17295628741199498,0.06052410667849119,0.0,-0.0016236528269678574,-0.0,-0.0002042963859262383,1.7564993592070932,1.7563688914818978,-0.0001304677251954267,-0.0001304677251954267,0.6073345642872555,8.500560760498047,0.0,4.020722620656969,1,0.028343212652558323,0.030866068706063607,-0.011115477387793692,8.501961708068848,1,0.0004583358764648437,-2.5951563591468385e-05,0.0004997509214477448,1.7563688914818978,1.5707963267948966,-0.0,0,0.001149268890273715,0.00012108342733782872,5.751190769572486e-06,0.04143903999647591
53.82061749699642,4.110944930535535,0.0,0.0,0.07768789938348608,1.5084475147196992,-2.483227213889881,-2.5339833872040805,0.24242705122066635,0.0,0.003008955391123891,-3.241223471631659e-05,-0.6216741357001823,1.3956023963969881,-3.241223471631659e-05,0.0,0.0,0.0,-0.11292895052698382,0.05943099647345178,0.0,0.1268904332854981,0.06764985473328541,-0.0,-0.0013137676484794053,-0.0,0.0012813554137630888,1.8280578585388607,1.8305115165701578,0.0024536580312970457,0.0024536580312970457,0.6186266213634124,8.500823020935059,0.0,4.020722620656969,1,0.02706669296356985,0.03207536801888838,-0.011568548406167828,8.501961708068848,1,0.00034160614013671874,-9.329507796144999e-06,0.0004870660113176411,1.8305115165701578,1.5707963267948966,-0.0,0,0.001149268890273715,0.00012108342733782872,5.751190769572486e-06,0.033172515002661385
53.91166448900185,4.107157041026192,0.0,0.0,0.07465422800651766,1.5004927094468274,-2.4820829078697773,-2.51995426093859,0.21119447467480038,0.0,0.00221556075848639,0.0012271235498359273,-0.6573329865685648,1.3652819569616736,0.0012271235498359273,0.0,0.0,0.0,-0.10296459196623352,0.05733442035664614,0.0,0.0946783826720321,0.07071184393459574,-0.0,-0.0009127543282974655,-0.0,0.002139877878133393,1.8769270775947025,1.8796732794887983,0.002746201894095801,0.002746201894095801,0.610197044491453,8.501198768615723,0.0,4.020722620656969,1,0.025930326110767066,0.03270576051646563,-0.011439083145043964,8.501961708068848,1,0.00027008056640625,-2.4633927326309094e-06,0.00042668637098366183,1.8796732794887983,1.5707963267948966,-0.0,0,0.001149268890273715,0.00012108342733782872,5.751190769572486e-06,0.035389615994063206
54.03168972500134,4.106478112636452,0.0,0.0,0.06758444416618514,1.507360975570414,-2.4818777506063183,-2.5013719581414886,0.16366728167183203,0.0,0.0016427029622718692,0.00019611804866389053,-0.7123100706877918,1.33848363940662,0.00019611804866389053,0.0,0.0,0.0,-0.07100519389368785,0.05470976576308754,0.0,0.048735518837925706,0.0737641664637559,-0.0,-0.0007004965286028971,-0.0,0.0008966145772667877,1.9514526366548601,1.9516978874907633,0.0002452508359032102,0.0002452508359032102,0.5959175172539195,8.501477241516113,0.0,4.020722620656969,1,0.025726647593845086,0.03370046850636015,-0.01077739030567019,8.501961708068848,1,0.0001453399658203125,4.613308228039459e-06,0.00032525547388535537,1.9516978874907633,1.5707963267948966,-0.0,0,0.001149268890273715,0.00012108342733782872,5.751190769572486e-06,0.04167367200716399
54.124271526001394,4.1045824601787615,0.0,0.0,0.06485943662355853,1.509032422013383,-2.4813048362239054,-2.49300504663908,0.1434823494746795,0.0,0.0009862789884209633,0.001222915931637706,-0.7584329524331586,1.3124578057834366,0.001222915931637706,0.0,0.0,0.0,-0.0585469080998257,0.05339994089045118,0.0,0.029250526037936098,0.07483807160122616,-0.0,-0.0003931374553188068,-0.0,0.0016160533869565127,2.001892652037496,1.9999891444497204,-0.001903507587775355,-0.001903507587775355,0.5876627964028774,8.501818656921387,0.0,4.020722620656969,1,0.025157951856537863,0.03438478684553222,-0.010295810905131738,8.501961708068848,1,7.638931274414062e-05,7.123375180055625e-06,0.0002475372082987556,1.9999891444497204,1.5707963267948966,-0.0,0,0.001149268890273715,0.00012108342733782872,5.751190769572486e-06,0.04096867601037957
54.21285318299488,4.104453810612626,0.0,0.0,0.06115788315531678,1.5206473052968663,-2.481265950259855,-2.48716487877683,0.12744297709430202,0.0,0.00025431631365790963,0.0012719754684004073,-0.8716777350103527,1.2525126210160522,0.0012719754684004073,0.0,0.0,0.0,-0.038538485350616505,0.05204515278082129,-0.0,0.01474732129243761,0.0756359772032308,0.0,-9.895543041036083e-05,-0.0,0.001370930898810768,2.1020745511019703,2.09518148747701,-0.006893063624960227,-0.006893063624960227,0.48458492041327317,8.502131462097168,0.0,4.020722620656969,1,0.025119356986697292,0.03539607533260223,-0.009634478590813808,8.501961708068848,1,-5.092620849609375e-05,6.70862690939772e-06,0.00013360817789400428,2.09518148747701,1.5707963267948966,-0.0,0,0.001149268890273715,0.00012108342733782872,5.751190769572486e-06,0.03837162199488375
54.311602222995134,4.103970991827675,0.0,0.0,0.0610836768455969,1.5242989092074408,-2.4811200067190446,-2.4881607049392187,0.13079136374700126,0.0,7.069525599945337e-05,0.0009100121565584758,-0.9063407182498651,1.2325339946160159,0.0009100121565584758,0.0,0.0,0.0,-0.03549652348713267,0.051270224808897216,0.0,0.017601745550435144,0.0761557296181447,0.0,-3.1449840957953336e-05,-0.0,0.0009414619975164291,2.12685822648029,2.119259029440034,-0.007599197040256023,-0.007599197040256023,0.5743261286414848,8.502218246459961,0.0,4.020722620656969,1,0.024974511351212047,0.03605154496389932,-0.009408119066083175,8.501961708068848,1,-6.6375732421875e-05,5.169091352301425e-06,7.948549547243805e-05,2.119259029440034,1.5707963267948966,-0.0,0,0.001149268890273715,0.00012108342733782872,5.751190769572486e-06,0.04018847001134418
54.41544245700061,4.102132240901991,0.0,0.0,0.06223214199948002,1.5283919112088231,-2.480564121596736,-2.493794570940931,0.1483746056722992,0.0,-0.00018650831771083176,0.00035677213037169954,-1.0099122429668221,1.156751537436926,0.00035677213037169954,0.0,0.0,0.0,-0.037768323542990735,0.05011662697991912,-0.0,0.03307612336048704,0.07746591896612057,0.0,6.248613221536584e-05,-0.0,0.0002942859981563337,2.199812989213653,2.1917502473567128,-0.008062741856940114,-0.008062741856940114,0.5845643528746451,8.502286911010742,0.0,4.020722620656969,1,0.024422886073506688,0.03705056501169748,-0.00931286203052167,8.501961708068848,1,-9.756088256835937e-05,1.5949679366397686e-06,1.3601150613164228e-05,2.1917502473567128,1.5707963267948966,-0.0,0,0.001149268890273715,0.00012108342733782872,5.751190769572486e-06,0.039488975002313964
54.537115724990144,4.098492764137472,0.0,0.0,0.06508675426389132,1.5265107906634254,-2.479463479506445,-2.5028373831164963,0.17742426207068857,0.0,-0.0005782715161330998,0.0008123410896603851,-1.112761893437867,1.0599412867210043,0.0008123410896603851,0.0,0.0,0.0,-0.0509471280906526,0.04904361456444225,-0.0,0.058434759025127736,0.07924280319950976,0.0,0.0002710585393262575,-0.0,0.0005412825503341276,2.272069620246218,2.2647912582224214,-0.007278362023796614,-0.007278362023796614,0.5901808799867128,8.502263069152832,0.0,4.020722620656969,1,0.023331043044150946,0.03767358245266944,-0.009503772057103085,8.501961708068848,1,-9.04083251953125e-05,-9.209150135872091e-07,-3.5178043713770926e-05,2.2647912582224214,1.5707963267948966,-0.0,0,0.001149268890273715,0.00012108342733782872,5.751190769572486e-06,0.04224816100031603
54.6124099019944,4.095803348897745,0.0,0.0,0.06681631719804582,1.5256444899307753,-2.4786498387926073,-2.508376653046988,0.1975426760348684,0.0,-0.0008091334602795541,0.0010718382530812002,-1.1775550835530662,0.9899385050140659,0.0010718382530812002,0.0,0.0,0.0,-0.05793654188634554,0.04738583454416374,-0.0,0.07431703563595238,0.08230558740192229,0.0,0.00039250700306755836,-0.0,0.0006793312500136419,2.3200661746760627,2.3137734583187597,-0.0062927163573029965,-0.0062927163573029965,0.5912194041118352,8.50219440460205,0.0,4.020722620656969,1,0.022524218472233046,0.038588940004707285,-0.009746585781919996,8.501961708068848,1,-6.98089599609375e-05,-4.182280630166124e-06,-8.096388124251985e-05,2.3137734583187597,1.5707963267948966,-0.0,0,0.001149268890273715,0.00012108342733782872,5.751190769572486e-06,0.0397375870088581
54.712504429000546,4.090662814296993,0.0,0.0,0.06948572558896537,1.5176377043615814,-2.4770939064648902,-2.5134426190244916,0.21863734114509425,0.0,-0.0006969139212742448,0.00020088018675031862,-1.255933642178565,0.8795778391290738,0.00020088018675031862,0.0,0.0,0.0,-0.07263401227286406,0.045926928046833675,-0.0,0.09087178139900343,0.08507116227613934,0.0,0.000344630352670117,-0.0,-0.0001437501659197984,2.391973739858228,2.387560173526362,-0.004413566331866292,-0.004413566331866292,0.6056275434908595,8.502030372619629,0.0,4.020722620656969,1,0.020982058092007438,0.03916323425012723,-0.010028636692599716,8.501961708068848,1,-2.0599365234374998e-05,-5.2522382920833225e-06,-9.667839663092465e-05,2.387560173526362,1.5707963267948966,-0.0,0,0.001149268890273715,0.00012108342733782872,5.751190769572486e-06,0.040105839987518266
54.825958867993904,4.087127234818587,0.0,0.0,0.07069717888134708,1.5114880189708726,-2.476023192990704,-2.514638026745838,0.2297409535518559,0.0,-0.0008729526307433844,0.0012094306333024706,-1.3003118017443709,0.8040933748487895,0.0012094306333024706,0.0,0.0,0.0,-0.07911606791428162,0.0434527401674453,-0.0,0.09653708438783548,0.08970685911642912,0.0,0.0004766646378369368,-0.0,0.0007327659954655338,2.440144827213272,2.4369223237094926,-0.003222503503779617,-0.003222503503779617,0.6016130107000038,8.501836776733398,0.0,4.020722620656969,1,0.01992138424848564,0.0400369548366932,-0.01035877831430686,8.501961708068848,1,3.747940063476562e-05,-4.790957235203952e-06,-0.00011120001108138465,2.4369223237094926,1.5707963267948966,-0.0,0,0.001149268890273715,0.00012108342733782872,5.751190769572486e-06,0.03550198199809529
54.911814356994,4.083019015012631,0.0,0.0,0.07200396978764978,1.5023546301632105,-2.4747784794843652,-2.5144052262954304,0.23619995275043998,0.0,-0.0007937788031995296,0.0006460503441340742,-1.3347586630015602,0.7288889929162288,0.0006460503441340742,0.0,0.0,0.0,-0.0876934684166937,0.04162679101902927,0.0,0.09906686702766287,0.09279159299829987,-0.0,0.0004732405369283862,-0.0,0.00017280980720568807,2.512226925320638,2.4858183952940975,-0.026408530026540422,-0.026408530026540422,0.27232797142445186,8.50144100189209,0.0,4.020722620656969,1,0.018688918306698808,0.040494295767160286,-0.010564169197327635,8.501961708068848,1,0.00011186599731445312,-2.0534580145517567e-06,-0.00011485711428545393,2.4858183952940975,1.5707963267948966,-0.0,0,0.001149268890273715,0.00012108342733782872,5.751190769572486e-06,0.039933015999849886
55.0202344749996,4.0743115401643415,0.0,0.0,0.07340446355104535,1.4869700006384718,-2.472138206137859,-2.5126672701046067,0.2441573090122639,0.0,-0.0008156663971021771,0.0010309404077797513,-1.3914285768371855,0.5784626953432103,0.0010309404077797513,0.0,0.0,0.0,-0.10119052813639944,0.03857435991742662,-0.0,0.10132265991686928,0.097565407598742,-0.0,0.0006025558607596725,-0.0,0.0004283845470200788,2.584832622203603,2.5848517485916833,1.9126388080437096e-05,1.9126388080437096e-05,0.6097669469748535,8.500959396362305,0.0,4.020722620656969,1,0.016076675852211862,0.04116280152936886,-0.010819154666908552,8.501961708068848,1,0.00030069351196289064,7.2881290048509855e-06,-0.00011938827013713136,2.5848517485916833,1.5707963267948966,-0.0,0,0.001149268890273715,0.00012108342733782872,5.751190769572486e-06,0.03982700100459624
55.11193600099068,4.069618440090689,0.0,0.0,0.07302682603680233,1.4807116726410445,-2.4707139980451065,-2.5100874615156616,0.24424549707472173,0.0,-0.0004275245883036405,-0.0002273832077707643,-1.4129840192818295,0.5056076360092716,-0.0002273832077707643,0.0,0.0,0.0,-0.10383094990116683,0.03635348461464349,-0.0,0.09843365867638787,0.1007698466028627,-0.0,0.00045058273739740826,-0.0,-0.0006779659451681726,2.632131044932649,2.6344803787251463,0.0023493337924973545,0.0023493337924973545,0.6157954089094059,8.50060749053955,0.0,4.020722620656969,1,0.014668745830116237,0.041564145219399495,-0.010894318319691225,8.501961708068848,1,0.0004062652587890625,1.7438084020801602e-05,-0.00010025670211782404,2.6344803787251463,1.5707963267948966,-0.0,0,0.001149268890273715,0.00012108342733782872,5.751190769572486e-06,0.04021245600597467
55.21373657199729,4.064964893476301,0.0,0.0,0.07166832374917453,1.475603056606908,-2.0,-2.5054487446063547,1.4319477817995343,0.0,-0.0003684593248181045,0.0006492460832773489,-1.9563294050009812,-0.6329724240413357,0.0006492460832773489,0.0,0.0,0.0,-0.10171713318775355,0.03308215174328672,0.0,1.2636218615158867,0.124153014374034,0.0,0.0005072464962925805,-0.0,0.00014199958698476838,2.6796040005868935,2.684128622934062,0.004524622347168439,0.004524622347168439,0.6176231052451102,8.50024700164795,0.0,4.020722620656969,1,0.013272681845799638,0.042123145858298155,-0.010852072804990879,8.501961708068848,1,0.0005144119262695312,3.596601416703399e-05,-7.342643810036885e-05,2.684128622934062,1.5707963267948966,-0.0,0,0.001149268890273715,0.00012108342733782872,5.751190769572486e-06,0.04015824799716938
55.3117652029905,4.060167897571119,0.0,0.0,0.07012217419372835,1.4706615129622316,-2.0,-2.4999660664241032,1.457177174307595,0.0,0.00012853187217842788,-0.0004955901994225759,-1.9276550291331862,-0.7552196314245028,-0.0004955901994225759,0.0,0.0,0.0,-0.09959071454287952,0.03094880682371765,0.0,1.249915166060258,0.16408570115593046,-0.0,0.00029582313690563653,-0.0,-0.0007914133363282124,2.727949620867137,2.7342014893601148,0.0062518684929777635,0.0062518684929777635,0.6199908736544959,8.499738693237305,0.0,4.020722620656969,1,0.011833583074245002,0.04244740463373207,-0.010716337392349925,8.501961708068848,1,0.0006048202514648437,5.1451977724492615e-05,-3.470179550151419e-05,2.7342014893601148,1.5707963267948966,-0.0,0,0.001149268890273715,0.00012108342733782872,5.751190769572486e-06,0.03995231799490284
55.41588810698886,4.051098792672368,0.0,0.0,0.06841388197912868,1.441445320000925,-2.0,-2.4768414011476665,1.4339317435444214,0.0,0.0006916450802236795,-0.0011479745299057007,-1.807315067405752,-0.9314167181369766,-0.0011479745299057007,0.0,0.0,0.0,-0.10070082856374561,0.027805560886170762,-0.0,1.1921035028691662,0.2,-0.0,0.00011748424514570871,-0.0,-0.0012654587750514095,2.827433388230814,2.8346670111242798,0.007233622893465963,0.007233622893465963,0.615395824165178,8.49938678741455,0.0,4.020722620656969,1,0.009112851604619897,0.042856907014541555,-0.010409430923698266,8.501961708068848,1,0.0007724761962890625,8.119199115391718e-05,3.378396802354768e-05,2.8346670111242798,1.5707963267948966,-0.0,0,0.001149268890273715,0.00012108342733782872,5.751190769572486e-06,0.039153403995442204
55.532423546988866,4.046721921119445,0.0,0.0,0.07302669292329422,1.3750553703776707,-2.0,-2.441011736558606,1.3465795672293075,0.0,0.0006545373471453786,0.00022239686423306405,-1.6730364689729207,-0.9513163385386398,0.00022239686423306405,0.0,0.0,0.0,-0.1227475218141898,0.025367075211248702,-0.0,1.1025293413965154,0.2,-0.0,0.0002286946032060088,-0.0,-6.297738972944758e-06,2.8771752719126527,2.883680630993332,0.006505359080679174,0.006505359080679174,0.6020975581945825,8.499069213867188,0.0,4.020722620656969,1,0.0077997901387430344,0.0430742752348634,-0.010580044934096157,8.501961708068848,1,0.0008677482604980469,0.00010386181062421313,6.408494803313327e-05,2.883680630993332,1.5707963267948966,-0.0,0,0.001149268890273715,0.00012108342733782872,5.751190769572486e-06,0.03850089899788145
55.616458246993716,4.0413821792682025,0.0,0.0,0.08431651359119652,1.2493567129274477,-2.0,-2.38033899324761,1.2005091771071346,0.0,0.0005851307651028037,0.0008886246664676031,-1.4720651281811616,-0.9138592554919529,0.0008886246664676031,0.0,0.0,0.0,-0.17330252356656567,0.020660249157204547,-0.0,0.950847483119025,0.2,-0.0,0.00034606697488758945,-0.0,0.0005425576915800136,2.92709168851969,2.931704697806432,0.00461300928674202,0.00461300928674202,0.9648810260374965,8.498832702636719,0.0,4.020722620656969,1,0.006197867583370175,0.043356630571640284,-0.01145199084823145,8.501961708068848,1,0.0009387016296386718,0.00014025689447523111,8.295053246821656e-05,2.931704697806432,1.5707963267948966,-0.0,0,0.001149268890273715,0.00012108342733782872,5.751190769572486e-06,0.0386451949889306
55.71162761699816,4.035016380400921,0.0,0.0,0.10117281407197781,1.0740600847434782,-2.0,-2.2977839875782307,1.0020739288992464,0.0,0.0003466176858637482,0.001131621422476032,-1.222613163512753,-0.8142323237406373,0.001131621422476032,0.0,0.0,0.0,-0.2499304314530968,0.015492419580097316,0.0,0.7444599689455766,0.2,0.0,0.000547160001300296,-0.0,0.000584461421175736,2.977182638051927,2.9783788127618416,0.0011961747099147324,0.0011961747099147324,0.573589923023492,8.498429298400879,0.0,4.020722620656969,1,0.004288127923185758,0.043466188513691634,-0.013229617419058726,8.501961708068848,1,0.0010239601135253907,0.00016641818555377804,6.817272228507291e-05,2.9783788127618416,1.5707963267948966,-0.0,0,0.001149268890273715,0.00012108342733782872,5.751190769572486e-06,0.039927585996338166
55.81356430098822,4.022291361152191,0.0,0.0,0.13074310815112317,0.7774298453657866,-2.0,-2.16041127093669,0.6712515547864829,0.0,0.0012843938311561942,-0.0019476673910217373,-0.838479931655447,-0.5932345391831284,-0.0019476673910217373,0.0,0.0,0.0,-0.3874409595859315,0.004493189180664899,-0.0,0.4010281773417246,0.2,-0.0,9.279305378795017e-05,-0.0,-0.0020404604448096874,3.0529299275884814,3.04510647369396,-0.007823453894521215,-0.007823453894521215,0.4819621150556415,8.498237609863281,0.0,4.020722620656969,1,0.0004706221485666795,0.04353946272160175,-0.01658456594196032,8.501961708068848,1,0.0011172294616699219,0.00021018507717635861,0.00011163438195649751,3.04510647369396,1.5707963267948966,-0.0,0,0.001149268890273715,0.00012108342733782872,5.751190769572486e-06,0.04012991700437851
55.91181063199474,4.012358056069447,0.0,0.0,0.14323875547561787,0.6171368860927812,-2.0,-2.0778875090668065,0.46889809980030484,0.0,0.0024738411884754896,-0.0035774897506781643,-0.6415764457367755,-0.43485978021472316,-0.0035774897506781643,0.0,0.0,0.0,-0.4540764947205176,-0.004866181379474694,-0.0,0.19471877266701632,0.2,-0.0,-0.0005140775580442277,-0.0,-0.0030634121926339367,3.102148212494722,3.087521523643664,-0.014626688851057779,-0.014626688851057779,0.8165623118916818,8.498032569885254,0.0,4.020722620656969,1,-0.002509369376256565,0.04349218019783595,-0.018831120604766206,8.501961708068848,1,0.0011561393737792968,0.00024066938607635315,0.00022023649854612654,3.087521523643664,1.5707963267948966,-0.0,0,0.001149268890273715,0.00012108342733782872,5.751190769572486e-06,0.03993588799494319
56.03394044499146,3.998636801525526,0.0,0.0,0.13839924876126594,0.5065518341183102,-2.0,-1.984028652846352,0.22808602332292494,0.0,0.00351501302793622,-0.0026397791749220327,-0.5049341150559752,-0.2316452765254002,-0.0026397791749220327,0.0,0.0,0.0,-0.45779316988721985,-0.020082912481793877,0.0,-0.03992836788412002,0.1993439695848553,-0.0,-0.0009745285328059306,-0.0,-0.0016652506421161023,-3.1122711221562884,-3.134555010575533,-0.02228388841924467,-0.02228388841924467,0.734748855185725,8.497969627380371,0.0,4.020722620656969,1,-0.006625745739432842,0.04326020780407138,-0.020313391939964547,8.501961708068848,1,0.0011976242065429687,0.00028908983529172264,0.00040408476475831096,-3.134555010575533,1.5707963267948966,-0.0,0,0.001149268890273715,0.00012108342733782872,5.751190769572486e-06,0.041075458997511305
56.11425988799601,3.9942237773799656,0.0,0.0,0.13007499139090656,0.5032815479525359,-2.0,-1.961447430754905,0.16382561339515164,0.0,0.0035379743203520775,-0.0013095332651398217,-0.4986959188592061,-0.17729503271939237,-0.0013095332651398217,0.0,0.0,0.0,-0.43086378634593897,-0.029064600358381223,-0.0,-0.09638142311273745,0.19633098151216286,0.0,-0.0009329097977470725,-0.0,-0.0003766234673927492,-3.091501704057556,-3.1147085997940778,-0.023206895736521904,-0.023206895736521904,0.4292131601900889,8.497902870178223,0.0,4.020722620656969,1,-0.007949652983100908,0.04304868325464029,-0.019921048572883213,8.501961708068848,1,0.0011961936950683593,0.00032091818464477094,0.0004660127777271598,-3.1147085997940778,1.5707963267948966,-0.0,0,0.001149268890273715,0.00012108342733782872,5.751190769572486e-06,0.039404107999871485
56.212349595996784,3.9831817377561665,0.0,0.0,0.0658488975594291,0.7000387800621763,-2.0,-1.9150075561743245,0.00591363375622659,0.0,0.002833498641848564,0.0008702176219754531,-0.6955928959442588,-0.07899232726678254,0.0008702176219754531,0.0,0.0,0.0,-0.18407152516621159,-0.03657425843167276,0.0,-0.21248110956418875,0.18673634942973338,-0.0,-0.00043123317850812386,-0.0,0.001301450800483577,-3.0208158693517855,-3.0369633094216186,-0.016147440069833152,-0.016147440069833152,0.45921333936734593,8.49765396118164,0.0,4.020722620656969,1,-0.011262264870240646,0.042618977080547855,-0.014593554695201195,8.501961708068848,1,0.0012923240661621093,0.0003713990298641987,0.0004510535816420499,-3.0369633094216186,1.5707963267948966,-0.0,0,0.001149268890273715,0.00012108342733782872,5.751190769572486e-06,0.03973565800697543
56.31211635499494,3.9818633576393316,0.0,0.0,0.025654836752427856,0.8603443674881384,-2.0,-1.9105383422959061,-0.03179805773709883,0.0,0.0025505220983177423,0.0011527468598802868,-0.8561019266520855,-0.09106612063223085,0.0011527468598802868,0.0,0.0,0.0,-0.018477375063031685,-0.03787389201395054,0.0,-0.22365414426023467,0.17954663617828168,0.0,-0.000223955128723488,-0.0,0.0013767019886037747,-2.9883527452646916,-2.998675303117281,-0.010322557852589398,-0.010322557852589398,0.4611686836099019,8.497356414794922,0.0,4.020722620656969,1,-0.011657778905291094,0.04230724517690722,-0.009921929535996719,8.501961708068848,1,0.0013472557067871094,0.0004069761287403134,0.00042303171491783965,-2.998675303117281,1.5707963267948966,-0.0,0,0.001149268890273715,0.00012108342733782872,5.751190769572486e-06,0.04012531699845567
56.41571038799884,3.9846072246929243,0.0,0.0,-0.025639888407146927,1.0952754143480772,-2.0,-1.9198825404303035,-0.04324735986349401,0.0,0.0019138033967465162,0.00157061443529337,-1.0818839259605129,-0.176141244910958,0.00157061443529337,0.0,0.0,0.0,0.20379617689497204,-0.03356776497338251,0.0,-0.20029364892424129,0.16940022291560955,0.0,0.00020451002433780218,-0.0,0.001366104410955568,-2.9391344603584506,-2.9407341155671007,-0.0015996552086501303,-0.0015996552086501303,0.4756059074040556,8.497151374816895,0.0,4.020722620656969,1,-0.010834618789213301,0.04185613266949068,-0.0023157551154317684,8.501961708068848,1,0.0014430999755859375,0.0004637519349800223,0.0003478015267435602,-2.9407341155671007,1.5707963267948966,-0.0,0,0.001149268890273715,0.00012108342733782872,5.751190769572486e-06,0.039856176008470356
56.53428222499497,3.9888966374714196,0.0,0.0,-0.04724738949479795,1.2144377780031321,-2.0,-1.9332952398230314,-0.025906643673494188,0.0,0.0017818552441895008,0.0014856889256341598,-1.1858531402156942,-0.26321588224912934,0.0014856889256341598,0.0,0.0,0.0,0.3049624593399301,-0.027533288983170513,0.0,-0.16676190044242145,0.16375461002523536,0.0,0.00033083627191816484,-0.0,0.001154852653715995,-2.905449605794961,-2.9018414774574763,0.003608128337484473,0.003608128337484473,0.4889912686639578,8.496771812438965,0.0,4.020722620656969,1,-0.00954779495566469,0.041590251910123756,0.0020334760413909998,8.501961708068848,1,0.0015180587768554687,0.0005038792975942313,0.00031131095627007547,-2.9018414774574763,1.5707963267948966,-0.0,0,0.001149268890273715,0.00012108342733782872,5.751190769572486e-06,0.039325079997070134
56.61429314999259,3.995857217529626,0.0,0.0,-0.05368778720727663,1.2939265326853437,-2.0,-1.9589519174482692,0.028674779273713355,0.0,0.0020081507973372936,8.418789536509852e-05,-1.2282172714941484,-0.40810592859817846,8.418789536509852e-05,0.0,0.0,0.0,0.3500540473686653,-0.016495317126152226,-0.0,-0.1026202063793269,0.1576151938005851,0.0,0.00028154409095220025,-0.0,-0.00019735619558710173,-2.852915195309931,-2.8429523058923776,0.009962889417553633,0.009962889417553633,0.5015187976280919,8.496570587158203,0.0,4.020722620656969,1,-0.007459620938202826,0.04126285812967709,0.005856721566226517,8.501961708068848,1,0.0016173362731933592,0.0005667338544830591,0.00029332082124787593,-2.8429523058923776,1.5707963267948966,-0.0,0,0.001149268890273715,0.00012108342733782872,5.751190769572486e-06,0.04102822199638467
56.71166699199239,3.999826307905981,0.0,0.0,-0.04185299929721953,1.2777050717070606,-2.0,-1.9772552454570442,0.07828037091135061,0.0,0.002277667634189129,0.00011202846089482768,-1.1793003921723022,-0.4979042596305215,0.00011202846089482768,0.0,0.0,0.0,0.31028521300761225,-0.010007160558832285,0.0,-0.056861886357389424,0.15583167126528463,-0.0,0.00019682484611059403,-0.0,-8.479638521576636e-05,-2.8164378139432498,-2.803283305765046,0.013154508178203628,0.013154508178203628,0.48800653712417646,8.496293067932129,0.0,4.020722620656969,1,-0.00626889382529634,0.041095321419793635,0.006063296576979789,8.501961708068848,1,0.0016771316528320312,0.0006115553376645184,0.0003170220538769024,-2.803283305765046,1.5707963267948966,-0.0,0,0.001149268890273715,0.00012108342733782872,5.751190769572486e-06,0.03926764699281193
56.81295904799481,4.0021933645064,0.0,0.0,-0.006722202688221102,1.1680931176730285,-2.0,-2.001112991866316,0.15481421420210734,0.0,0.003118341090157628,-0.0015773425456537626,-1.0165778782605095,-0.5958006293261797,-0.0015773425456537626,0.0,0.0,0.0,0.1708948837249692,-0.0033664168581211754,-0.0,0.0027824796657904827,0.15539286327453736,0.0,-0.00019109701479335262,-0.0,-0.00138624553086041,-2.759714613253434,-2.743235808870749,0.01647880438268512,0.01647880438268512,0.5244359949778248,8.496214866638184,0.0,4.020722620656969,1,-0.005558776845170498,0.040871038772681854,0.003537504377592662,8.501961708068848,1,0.0017240524291992187,0.0006801412356997453,0.0003956524006030764,-2.743235808870749,1.5707963267948966,-0.0,0,0.001149268890273715,0.00012108342733782872,5.751190769572486e-06,0.03973572100221645
56.91298460599501,4.001187749768243,0.0,0.0,0.020570058235800825,1.064285179582287,-2.0,-2.012027408424164,0.1967702153416228,0.0,0.0039256904274225235,-0.0015964809241599473,-0.8799073472864692,-0.6302257701136778,-0.0015964809241599473,0.0,0.0,0.0,0.05466082342549219,-0.002138786546154196,0.0,0.030068521060410136,0.15635788550450389,-0.0,-0.000586690982208139,-0.0,-0.0010097899419518083,-2.7207937709339602,-2.7028700426736854,0.017923728260274885,0.017923728260274885,0.516174613427473,8.496217727661133,0.0,4.020722620656969,1,-0.005860461266617723,0.040714638820262786,0.0002921002622870156,8.501961708068848,1,0.0017312049865722656,0.0007263424415791961,0.00049032469559083,-2.7028700426736854,1.5707963267948966,-0.0,0,0.001149268890273715,0.00012108342733782872,5.751190769572486e-06,0.03990904700185638
57.032983789991704,3.9933583594750135,0.0,0.0,0.06479050014437704,0.8732494326179735,-2.0,-2.019575072341713,0.24044053202665705,0.0,0.005317788105458021,-0.0034688456472078463,-0.6387466481762262,-0.6421673772876593,-0.0034688456472078463,0.0,0.0,0.0,-0.14274529684053316,-0.005372026456742427,-0.0,0.04893768085428296,0.158736125214592,-0.0,-0.0013256209673755154,-0.0,-0.0021432246798323306,-2.6410322241178195,-2.6222062730132727,0.018825951104546768,0.018825951104546768,0.5264924359171966,8.496465682983398,0.0,4.020722620656969,1,-0.008209278354586536,0.040407971262742204,-0.005473605254587476,8.501961708068848,1,0.0016488075256347655,0.0007951274242977355,0.000664484876566328,-2.6222062730132727,1.5707963267948966,-0.0,0,0.001149268890273715,0.00012108342733782872,5.751190769572486e-06,0.040725175000261515
57.1116797089926,3.9904289555936177,0.0,0.0,0.0709621175952434,0.8333724327851124,-2.0,-2.018192666377098,0.2415372001595824,0.0,0.005488723982125521,-0.002588669186671373,-0.590791081148117,-0.6354649708858435,-0.002588669186671373,0.0,0.0,0.0,-0.1786746672014987,-0.008670643379999985,-0.0,0.04548166594274483,0.16016585245203474,-0.0,-0.0013730750296057016,-0.0,-0.0012155941570656714,-2.6204373389442863,-2.6018810315641803,0.018556307380106052,0.018556307380106052,0.5263364460398945,8.496657371520996,0.0,4.020722620656969,1,-0.009088099519005287,0.040182667806231066,-0.007779028612382026,8.501961708068848,1,0.0016264915466308594,0.0008378878986041838,0.000735886154214308,-2.6018810315641803,1.5707963267948966,-0.0,0,0.001149268890273715,0.00012108342733782872,5.751190769572486e-06,0.038145971004269086
57.21602127799997,3.9810371588226805,0.0,0.0,0.075623424014445,0.7788128346193529,-2.0,-2.0065250537675783,0.2157779962592377,0.0,0.005680658854544163,-0.0018723979284258313,-0.5206369896855556,-0.6180992638797154,-0.0018723979284258313,0.0,0.0,0.0,-0.216948201330458,-0.015569085014857837,-0.0,0.016312634418945704,0.16134959228501683,-0.0,-0.0014764624622162726,-0.0,-0.0003959354662095587,-2.5364870019233594,-2.5410949615953418,-0.0046079596719823535,-0.0046079596719823535,0.23961294449787085,8.496922492980957,0.0,4.020722620656969,1,-0.011905638550286434,0.039735757996703105,-0.010059549120093809,8.501961708068848,1,0.0015117645263671875,0.0008988680687818523,0.0008092554890346688,-2.5410949615953418,1.5707963267948966,-0.0,0,0.001149268890273715,0.00012108342733782872,5.751190769572486e-06,0.04073892500309739
57.31304750099662,3.9723506634697205,0.0,0.0,0.06357557015399218,0.7922937235130195,-2.0,-1.9884094392465457,0.163737398465453,0.0,0.004982007201761007,0.0010541419646457027,-0.5246497836030484,-0.6158586562999939,0.0010541419646457027,0.0,0.0,0.0,-0.18307474207956062,-0.019954564280938,0.0,-0.028976401883635816,0.16089025945120133,-0.0,-0.0011022184149694551,-0.0,0.002156360379615158,-2.4933773693990995,-2.4801857329133403,0.013191636485759162,0.013191636485759162,0.41993072725195535,8.497267723083496,0.0,4.020722620656969,1,-0.01451158715617442,0.0393657239499267,-0.010098497860976264,8.501961708068848,1,0.0014081954956054687,0.0009377979755758617,0.0007989830389639186,-2.4801857329133403,1.5707963267948966,-0.0,0,0.001149268890273715,0.00012108342733782872,5.751190769572486e-06,0.04273272800492123
57.41302337498928,3.9699488038476423,0.0,0.0,0.05720284042869983,0.8033011855368145,-2.0,-1.9819719316098008,0.142528257284324,0.0,0.004645117092877626,-0.00025609403429324034,-0.5340999488988755,-0.6167206364275293,-0.00025609403429324034,0.0,0.0,0.0,-0.16106726794281356,-0.025118547935073506,-0.0,-0.045070170975498036,0.15904027052535558,0.0,-0.000917578373418087,-0.0,0.0006614843391248466,-2.4726079513003665,-2.460125312848394,0.012482638451972505,0.012482638451972505,0.43847447047612137,8.497359275817871,0.0,4.020722620656969,1,-0.015232145042797907,0.038776019696447395,-0.009292305676366608,8.501961708068848,1,0.0013807296752929687,0.0009925737779629643,0.0007425163505915486,-2.460125312848394,1.5707963267948966,-0.0,0,0.001149268890273715,0.00012108342733782872,5.751190769572486e-06,0.03984488800051622
57.517136415001005,3.9630682925835514,0.0,0.0,0.028373943752893926,0.8880118245866089,-2.0,-1.9591967776411976,0.06798744462666571,0.0,0.0032618797849863768,0.0024963339470496265,-0.5951337573076846,-0.6625730934359922,0.0024963339470496265,0.0,0.0,0.0,-0.05397207614182847,-0.026571705719954042,0.0,-0.10200805589700601,0.1559684550463901,0.0,-0.00017031233630513475,-0.0,0.0026666462833547615,-2.3890066801298384,-2.379037271431342,0.009969408698496274,0.009969408698496274,0.50697595420882,8.49755859375,0.0,4.020722620656969,1,-0.017296298422025156,0.038320273175630006,-0.007042584638531849,8.501961708068848,1,0.0013209342956542968,0.0010277993888013677,0.0006292922066888209,-2.379037271431342,1.5707963267948966,-0.0,0,0.001149268890273715,0.00012108342733782872,5.751190769572486e-06,0.0398012500081677
57.61231826498988,3.961351992780917,0.0,0.0,0.01629950349089715,0.9321438012687331,-2.0,-1.952001376336678,0.03836186241788822,0.0,0.002537972992286086,0.0013871512978635696,-0.6203315563231357,-0.6968159433893635,0.0013871512978635696,0.0,0.0,0.0,-0.002779878882065562,-0.026947261932639324,-0.0,-0.1199965591583052,0.15032665532421235,0.0,0.0002061713178396961,-0.0,0.0011809799800238734,-2.3486895744087692,-2.339322659553288,0.009366914855481134,0.009366914855481134,0.5041180830676056,8.49756145477295,0.0,4.020722620656969,1,-0.017811188362815453,0.037609845710076556,-0.0042404548915814366,8.501961708068848,1,0.0013200759887695313,0.0010806764808215352,0.0004808393857611799,-2.339322659553288,1.5707963267948966,-0.0,0,0.001149268890273715,0.00012108342733782872,5.751190769572486e-06,0.03986674500629306
57.71227787499083,3.960407688401892,0.0,0.0,0.008333872772599116,0.9612962054447377,-2.0,-1.948261325072126,0.02096397761167782,0.0,0.0019742685835808516,0.002333503606812568,-0.624599172816568,-0.7310306124073146,0.002333503606812568,0.0,0.0,0.0,0.029345458421033088,-0.0264662871335666,0.0,-0.12934668731968524,0.14621094508219817,-0.0,0.0005321933790709273,-0.0,0.0018013102277416406,-2.3081979357625007,-2.2996490854098726,0.00854885035262809,0.00854885035262809,0.49843742968352356,8.497469902038574,0.0,4.020722620656969,1,-0.018094479676523,0.0371248003484394,-0.00287099232037513,8.501961708068848,1,0.0013475418090820312,0.0011167032144137252,0.00039701252520330736,-2.2996490854098726,1.5707963267948966,-0.0,0,0.001149268890273715,0.00012108342733782872,5.751190769572486e-06,0.03979573400283698
57.81575604499085,3.9596529964277973,0.0,0.0,0.0037091842453529367,0.9828073966109808,-2.0,-1.9489873367859882,0.01426110086258037,0.0,0.0017346545355394483,0.0014526905567432986,-0.5986169895105801,-0.7795969841529382,0.0014526905567432986,0.0,0.0,0.0,0.04847160881349516,-0.024978486048986278,0.0,-0.12753165803502942,0.13996705519818947,0.0,0.0006943531373886243,-0.0,0.0007583374193546741,-2.247460477793098,-2.2401362391258006,0.007324238667297589,0.007324238667297589,0.49383862104068016,8.497274398803711,0.0,4.020722620656969,1,-0.018320887268751383,0.03632613812718299,-0.0013703042628132917,8.501961708068848,1,0.0014061927795410156,0.001177703466014507,0.00030801351896496626,-2.2401362391258006,1.5707963267948966,-0.0,0,0.001149268890273715,0.00012108342733782872,5.751190769572486e-06,0.02951629800372757
57.912071175000165,3.9589364550291597,0.0,0.0,0.005982400798782317,0.9799849993298825,-2.0,-1.9550849330916675,0.02680408412054497,0.0,0.0020307365339249372,0.0005707213645202468,-0.5391863037011675,-0.8187595420745968,0.0005707213645202468,0.0,0.0,0.0,0.0385278981757906,-0.024043896151987935,-0.0,-0.11228766727083117,0.1361373969079752,0.0,0.0005663741279450115,-0.0,4.347236575235356e-06,-2.186897552748895,-2.180496698422563,0.006400854326332084,0.006400854326332084,0.7909251004278219,8.497100830078125,0.0,4.020722620656969,1,-0.018535849688342675,0.03589741992803127,-0.0011050632606954508,8.501961708068848,1,0.0014582633972167968,0.0012112624567452088,0.00030516755987128406,-2.180496698422563,1.5707963267948966,-0.0,0,0.001149268890273715,0.00012108342733782872,5.751190769572486e-06,0.04106753700762056
58.031942953995895,3.9581851063061197,0.0,0.0,0.009581826623915934,0.9693734599601639,-2.0,-1.9608132941093315,0.03790569411067553,0.0,0.0023774048313498497,-0.00020871379927413138,-0.4910718764286924,-0.8366421927574265,-0.00020871379927413138,0.0,0.0,0.0,0.021128785890569306,-0.023106758745012647,-0.0,-0.09796676472667132,0.13112579527275203,0.0,0.00041582841152429286,-0.0,-0.0006245422107984242,-2.147453111653823,-2.1406525688087994,0.006800542845023738,0.006800542845023738,0.5069877516998398,8.49704360961914,0.0,4.020722620656969,1,-0.01876125430525466,0.035155859206336924,-0.001178435373014516,8.501961708068848,1,0.0014754295349121093,0.0012696433182631875,0.0003253793307150412,-2.1406525688087994,1.5707963267948966,-0.0,0,0.001149268890273715,0.00012108342733782872,5.751190769572486e-06,0.041105543001322076
58.111626636993606,3.9567804697240145,0.0,0.0,0.015102765857429423,0.9521448307878062,-2.0,-1.9694002762506087,0.0596393356303895,0.0,0.0026912090834230185,-0.00040871146221757744,-0.4127523345414641,-0.8601000752708639,-0.00040871146221757744,0.0,0.0,0.0,-0.0049682331147717865,-0.023112520451486925,-0.0,-0.07649930937347837,0.1286215761446384,0.0,0.0002770853470260878,-0.0,-0.0006857968092436653,-2.0898572463380103,-2.080780973902506,0.00907627243550424,0.00907627243550424,0.5132192443882505,8.49702262878418,0.0,4.020722620656969,1,-0.019182645279886223,0.034629187684210076,-0.0016686387108335718,8.501961708068848,1,0.0014817237854003907,0.0013104873015298017,0.0003608069082029723,-2.080780973902506,1.5707963267948966,-0.0,0,0.001149268890273715,0.00012108342733782872,5.751190769572486e-06,0.03654091598582454
58.21271902699664,3.9551083249894754,0.0,0.0,0.018707442997960122,0.9370268064092901,-2.0,-1.9749351131011084,0.07202679510675356,0.0,0.0033954938407987356,-0.0019691743797255233,-0.3431130554763254,-0.874917439707681,-0.0019691743797255233,0.0,0.0,0.0,-0.025458727276805933,-0.023674232486696842,-0.0,-0.06266221724722909,0.1253476788133628,0.0,-8.531183837751088e-05,-0.0,-0.0018838625413480122,-2.032086848096998,-2.0212477684143506,0.010839079682647412,0.010839079682647412,0.5286502511828735,8.497114181518555,0.0,4.020722620656969,1,-0.019684288700247965,0.0338737927863488,-0.002271055028622292,8.501961708068848,1,0.0014542579650878905,0.0013675354349393391,0.0004315140434756545,-2.0212477684143506,1.5707963267948966,-0.0,0,0.001149268890273715,0.00012108342733782872,5.751190769572486e-06,0.0404514390102122
58.311833801999455,3.954119188497076,0.0,0.0,0.019620850316678484,0.9306966874374378,-2.0,-1.9767736813450274,0.07521000960859824,0.0,0.0033499293494969606,-0.00025088513066601095,-0.30239670225948473,-0.8834076658117326,-0.00025088513066601095,0.0,0.0,0.0,-0.03319799784229674,-0.02434921961470212,-0.0,-0.0580657966374315,0.12346679982445992,0.0,-3.255595747346509e-05,-0.0,-0.00021832917319254585,-1.9924678740767265,-1.9812366192393671,0.01123125483735965,0.01123125483735965,0.5192531897565009,8.49721908569336,0.0,4.020722620656969,1,-0.01998102964796775,0.03334221953007015,-0.002593138990036378,8.501961708068848,1,0.0014227867126464842,0.001405700955596774,0.0004671817521312607,-1.9812366192393671,1.5707963267948966,-0.0,0,0.001149268890273715,0.00012108342733782872,5.751190769572486e-06,0.0400443739927141
58.41232749698975,3.9527922998933582,0.0,0.0,0.01894758846412048,0.9273444811017965,-2.0,-1.9769480975385982,0.07255119156545214,0.0,0.0033447653986513615,7.094852958392196e-05,-0.25056043453495797,-0.8957962551122772,7.094852958392196e-05,0.0,0.0,0.0,-0.0359203057040567,-0.02548531283052908,0.0,-0.05762975615350441,0.12070450774306966,-0.0,-9.204684349348527e-06,-0.0,8.015321393327049e-05,-1.9324285478081216,-1.9216096501977646,0.010818897610357148,0.010818897610357148,0.5178345574940282,8.497371673583984,0.0,4.020722620656969,1,-0.020379096229083116,0.03252903557520211,-0.0027810990697469703,8.501961708068848,1,0.0013770103454589842,0.0014619140265725765,0.0004904998860375533,-1.9216096501977646,1.5707963267948966,-0.0,0,0.001149268890273715,0.00012108342733782872,5.751190769572486e-06,0.03918053599772975
58.53411901099025,3.9522161790069212,0.0,0.0,0.018301443907769,0.9262490580670566,-2.0,-1.9767609982071324,0.06989581274633697,0.0,0.003236965974792838,0.000536548486495145,-0.23466722032315562,-0.8987513771424132,0.000536548486495145,0.0,0.0,0.0,-0.03618660064510885,-0.026271402604182426,0.0,-0.058097504482169104,0.11883957186409039,-0.0,7.195081711955948e-05,-0.0,0.00046459766937558553,-1.9120081955597883,-1.9015162235946272,0.010491971965160829,0.010491971965160829,0.5163386913540544,8.497404098510742,0.0,4.020722620656969,1,-0.020551932495014212,0.031986649825127215,-0.0027830335943730303,8.501961708068848,1,0.0013672828674316407,0.0014982751835971907,0.0004913259522966061,-1.9015162235946272,1.5707963267948966,-0.0,0,0.001149268890273715,0.00012108342733782872,5.751190769572486e-06,0.04025297499902081
58.61602905498876,3.950543156503783,0.0,0.0,0.015733174769772096,0.9298320910867974,-2.0,-1.975787592044456,0.06332306155219844,0.0,0.0030445728916674852,0.0009682003404309947,-0.18734235483123807,-0.9129624142457763,0.0009682003404309947,0.0,0.0,0.0,-0.03095521933931597,-0.027364559893314686,0.0,-0.06053101988885978,0.1159854390133944,-0.0,0.0001984604976083721,-0.0,0.0007697398428226226,-1.829454121940456,-1.841186063397827,-0.011731941457370887,-0.011731941457370887,0.2211913590790911,8.49748706817627,0.0,4.020722620656969,1,-0.021053839245955695,0.03113184819957573,-0.0025995593409988654,8.501961708068848,1,0.0013423919677734374,0.0015538805956963444,0.000479067824211657,-1.841186063397827,1.5707963267948966,-0.0,0,0.001149268890273715,0.00012108342733782872,5.751190769572486e-06,0.03741978699690662
58.71172867900168,3.9492341710823893,0.0,0.0,0.012133553303192657,0.9415122359272837,-2.0,-1.9765512490142658,0.06154762044236596,0.0,0.0028265081346035004,0.0011920949331008905,-0.1359721111367244,-0.9336728468665741,0.0011920949331008905,0.0,0.0,0.0,-0.019861219572440563,-0.027870198013257325,0.0,-0.05862187746433545,0.11409677876737684,0.0,0.0003352925095352623,-0.0,0.0008568024235656283,-1.7880898186681904,-1.7806892651747497,0.007400553493440931,0.007400553493440931,0.4275296818050671,8.497493743896484,0.0,4.020722620656969,1,-0.0214465348723738,0.030583962955791702,-0.002300199999542728,8.501961708068848,1,0.0013403892517089844,0.0015883039408849152,0.00045663579123503804,-1.7806892651747497,1.5707963267948966,-0.0,0,0.001149268890273715,0.00012108342733782872,5.751190769572486e-06,0.03945972501242068
58.81331827699614,3.94859294299129,0.0,0.0,0.00955900611761673,0.9497298270182442,-2.0,-1.9775667701641806,0.06006760220054913,0.0,0.0027968466747552156,0.0006647463625202798,-0.1010182034082187,-0.9462505924660777,0.0006647463625202798,0.0,0.0,0.0,-0.01234661902951209,-0.028344796891241704,0.0,-0.05608307458954853,0.11136325678329534,0.0,0.0003695843117380408,-0.0,0.0002951620507822389,-1.7481217787975205,-1.7403127151315199,0.0078090636660004265,0.0078090636660004265,0.5223939206231869,8.497505187988281,0.0,4.020722620656969,1,-0.021638903299703572,0.029722756756172353,-0.0018172790800552747,8.501961708068848,1,0.0013369560241699217,0.0016417657154368217,0.000434098788045207,-1.7403127151315199,1.5707963267948966,-0.0,0,0.001149268890273715,0.00012108342733782872,5.751190769572486e-06,0.03998871200019494
58.91166393899766,3.948034803747212,0.0,0.0,0.006207866676071427,0.9618629650658272,-2.0,-1.9785238718561466,0.059051414086605046,0.0,0.0026479968801140785,0.0010109725071143503,-0.04578020627482317,-0.9625858952759943,0.0010109725071143503,0.0,0.0,0.0,-0.00120834005447352,-0.028449009692831165,0.0,-0.05369032035963339,0.10963071516134006,0.0,0.0004741337660058628,-0.0,0.0005368387411084875,-1.6889551171549129,-1.679635917502817,0.009319199652095822,0.009319199652095822,0.5311761165116023,8.49748706817627,0.0,4.020722620656969,1,-0.021806345072926937,0.029137581884114073,-0.0014455941496419808,8.501961708068848,1,0.0013423919677734374,0.0016778350338877979,0.000417992821795948,-1.679635917502817,1.5707963267948966,-0.0,0,0.001149268890273715,0.00012108342733782872,5.751190769572486e-06,0.038838021995616145
59.02044002599723,3.9478393917488646,0.0,0.0,0.0047323951916265206,0.9661671489809798,-2.0,-1.9790446788445253,0.057076830763382304,0.0,0.0026353243738412857,0.0005293999821322462,-0.009508520279094844,-0.967804893778766,0.0005293999821322462,0.0,0.0,0.0,0.0024736144300548024,-0.028397949476695585,0.0,-0.05238830288868679,0.10709279258324234,0.0,0.0005029810429775339,-0.0,2.6418939154712444e-05,-1.6491616102094422,-1.6396277872867426,0.009533822922699553,0.009533822922699553,0.5237072182159006,8.497489929199219,0.0,4.020722620656969,1,-0.021864968672431217,0.028269189034969933,-0.001012194656230915,8.501961708068848,1,0.001341533660888672,0.0017312160012257355,0.00040087645002276817,-1.6396277872867426,1.5707963267948966,-0.0,0,0.001149268890273715,0.00012108342733782872,5.751190769572486e-06,0.039998814012506045
59.11194915699889,3.9478099897487233,0.0,0.0,0.0038273215912870695,0.9685811287285656,-2.0,-1.9794427933551622,0.05595660784659895,0.0,0.002694082446396351,0.0002386814967804278,0.028473295424083524,-0.969778230493185,0.0002386814967804278,0.0,0.0,0.0,0.004393414290625608,-0.028310349638106982,0.0,-0.05139301661209461,0.10543059487991487,0.0,0.000490590091361904,-0.0,-0.0002519085945814762,-1.5880750863896407,-1.5991517200508347,-0.011076633661193824,-0.011076633661193824,0.24754288447330403,8.497478485107422,0.0,4.020722620656969,1,-0.021873789272473586,0.027680018356235278,-0.0008073303483077931,8.501961708068848,1,0.001345539093017578,0.0017674414753338836,0.00039875203031472913,-1.5991517200508347,1.5707963267948966,-0.0,0,0.001149268890273715,0.00012108342733782872,5.751190769572486e-06,0.03955043999303598
59.21298476299853,3.948018044864301,0.0,0.0,0.0031477598136488705,0.9709696113070908,-2.0,-1.981451201883992,0.05831073777503822,0.0,0.0027625220827758312,0.00020986636832562484,0.10930896668017934,-0.9665576434052052,0.00020986636832562484,0.0,0.0,0.0,0.004667155488222963,-0.028158263669171874,-0.0,-0.046371995290019896,0.10310291949908161,0.0,0.0004798412019899858,-0.0,-0.00026997483366436093,-1.5268140296446393,-1.5181658863171352,0.008648143327504076,0.008648143327504076,0.44371308054771263,8.497503280639648,0.0,4.020722620656969,1,-0.021811372737800292,0.02681157577552881,-0.0006078684272201894,8.501961708068848,1,0.0013375282287597656,0.0018208092867686794,0.0004039199038973625,-1.5181658863171352,1.5707963267948966,-0.0,0,0.001149268890273715,0.00012108342733782872,5.751190769572486e-06,0.039856889998191036
59.31422300399572,3.9480999075581593,0.0,0.0,0.0030418180047537824,0.9702972372835911,-2.0,-1.9821464452966395,0.05848819697365579,0.0,0.002718455158174038,0.0007252150684636467,0.1289854293096591,-0.9634626909700247,0.0007252150684636467,0.0,0.0,0.0,0.003240589475147748,-0.02808142432612756,-0.0,-0.04463388675840119,0.10159493677870364,0.0,0.0005263393760620217,-0.0,0.00019887569240162504,-1.486322390998371,-1.4979165190133372,-0.011594128014966287,-0.011594128014966287,0.2679988636973896,8.497543334960938,0.0,4.020722620656969,1,-0.02178681392964279,0.026229584092155523,-0.0005367949643862194,8.501961708068848,1,0.00133209228515625,0.0018564457704781615,0.00040714939597632924,-1.4979165190133372,1.5707963267948966,-0.0,0,0.001149268890273715,0.00012108342733782872,5.751190769572486e-06,0.04265985298843589
59.414388765988406,3.948367779613567,0.0,0.0,0.0028584314809498856,0.9697520417657697,-2.0,-1.9836932949496484,0.06030610758997842,0.0,0.002962023951113224,0.000223230167914427,0.18935368141675474,-0.9529958197471043,0.000223230167914427,0.0,0.0,0.0,0.001146848324378716,-0.028019059432367727,-0.0,-0.04076676262587897,0.09963677011593502,0.0,0.0004093838792099495,-0.0,-0.0001861537112955225,-1.444434488950507,-1.4367648921532135,0.007669596797293288,0.007669596797293288,0.8499710216474703,8.497612953186035,0.0,4.020722620656969,1,-0.02170645231302042,0.025341092144561303,-0.0004703821307566735,8.501961708068848,1,0.00130462646484375,0.001910174707200936,0.0004295292444184539,-1.4367648921532135,1.5707963267948966,-0.0,0,0.001149268890273715,0.00012108342733782872,5.751190769572486e-06,0.03781235199130606
59.5319795129908,3.9488621760249094,0.0,0.0,0.0023035222746843886,0.9710987616193959,-2.0,-1.9844124128857072,0.060559346924697374,0.0,0.003029645187780261,-3.645459686093416e-05,0.24737301887103486,-0.941013724051515,-3.645459686093416e-05,0.0,0.0,0.0,0.001867148427673302,-0.02799048494159911,0.0,-0.03896896778573189,0.09837073108469636,0.0,0.0003761902213417002,-0.0,-0.0004126448182026344,-1.3777629115243237,-1.3760142144968273,0.0017486970274962488,0.0017486970274962488,0.456158616791165,8.497712135314941,0.0,4.020722620656969,1,-0.021558133389617762,0.02478253839204284,-0.00042297648036114115,8.501961708068848,1,0.001274871826171875,0.0019433989800184904,0.00043835808382606254,-1.3760142144968273,1.5707963267948966,-0.0,0,0.001149268890273715,0.00012108342733782872,5.751190769572486e-06,0.04051366599742323
59.613998766988516,3.9493065277939654,0.0,0.0,0.0016797310842220359,0.9708779946770871,-2.0,-1.9843624069249848,0.05825486645921726,0.0,0.003086789743974805,0.00010811077501988884,0.28412867911157164,-0.9301981529333935,0.00010811077501988884,0.0,0.0,0.0,0.001769879157780791,-0.02795152882708145,0.0,-0.039093982687538054,0.09650485408235208,-0.0,0.0003659358254981662,-0.0,-0.00025782505047827737,-1.3273228961416879,-1.3342778028880895,-0.006954906746401868,-0.006954906746401868,0.4578149655255441,8.497788429260254,0.0,4.020722620656969,1,-0.02142482785890096,0.02391546314108698,-0.00033893642255577235,8.501961708068848,1,0.001251983642578125,0.0019943339198372463,0.00045036522405637685,-1.3342778028880895,1.5707963267948966,-0.0,0,0.001149268890273715,0.00012108342733782872,5.751190769572486e-06,0.03910840200842358
59.7118120269879,3.9498276176425042,0.0,0.0,0.0011152601801623918,0.9714259617321418,-2.0,-1.9840691206750967,0.05597182774211738,0.0,0.0030687281396239996,0.00040540719338137536,0.3194110888464186,-0.9191179472461383,0.00040540719338137536,0.0,0.0,0.0,0.0026772648281351836,-0.027884740472688428,-0.0,-0.03982719831225834,0.0952388109009105,0.0,0.00038069375575178286,-0.0,2.471343762959251e-05,-1.2793263417118437,-1.2938879030809196,-0.01456156136907616,-0.01456156136907616,0.5038906266753755,8.497939109802246,0.0,4.020722620656969,1,-0.021268500904339314,0.02335297796895085,-0.00025527959694642867,8.501961708068848,1,0.0012213706970214844,0.002026635345774416,0.00045521168974773675,-1.2938879030809196,1.5707963267948966,-0.0,0,0.001149268890273715,0.00012108342733782872,5.751190769572486e-06,0.03923882399976719
59.81262300099479,3.9514973502176898,0.0,0.0,-0.00022892088429138369,0.9748987169005227,-2.0,-1.9834637772146255,0.05183198668746021,0.0,0.00295449560508132,0.0006560371548966532,0.38979337794689234,-0.8950838986190096,0.0006560371548966532,0.0,0.0,0.0,0.007013610727465434,-0.02771939684040851,0.0,-0.04134055696343619,0.09328745104968661,-0.0,0.0004372215057769857,-0.0,0.00021881564911966752,-1.188743753533338,-1.2131970370659535,-0.024453283532615444,-0.024453283532615444,0.4142733588877099,8.498101234436035,0.0,4.020722620656969,1,-0.02076758113178365,0.022518921174211875,-0.00010996473272882584,8.501961708068848,1,0.0011581420898437499,0.002073804545564112,0.0004512514793017673,-1.2131970370659535,1.5707963267948966,-0.0,0,0.001149268890273715,0.00012108342733782872,5.751190769572486e-06,0.03975671299849637
59.911836200990365,3.951931965037393,0.0,0.0,-0.00046624346447465825,0.9745896666625874,-2.0,-1.9835176077554868,0.050521693135730995,0.0,0.0028807860799133778,0.0007915148042488154,0.40641593239281926,-0.8872449209435181,0.0007915148042488154,0.0,0.0,0.0,0.006623429979633538,-0.027582809981573485,0.0,-0.041205980611283,0.09196168640954668,0.0,0.00048180003692807247,-0.0,0.00030971476732074297,-1.1672762037338076,-1.1930483162929078,-0.02577211255910017,-0.02577211255910017,0.4326223046453198,8.498250961303711,0.0,4.020722620656969,1,-0.020637196685872626,0.02196620404182395,-2.9002825857038972e-05,8.501961708068848,1,0.0011352539062499999,0.0021044178295052287,0.00044411440570493656,-1.1930483162929078,1.5707963267948966,-0.0,0,0.001149268890273715,0.00012108342733782872,5.751190769572486e-06,0.039963647999684326
60.0176787370001,3.953298486062281,0.0,0.0,-0.0010648863125320984,0.9763606578390515,-2.0,-1.9842308519147447,0.050085702491812475,0.0,0.0029559405520558357,4.032108697916352e-05,0.4596070682078692,-0.8628731393567485,4.032108697916352e-05,0.0,0.0,0.0,0.007771422707565349,-0.027331535225515118,0.0,-0.039422870213138284,0.09004305809292676,0.0,0.0004093854770929632,-0.0,-0.00036906439011379966,-1.1058406140636077,-1.1326266787102275,-0.026786064646620034,-0.026786064646620034,0.4430340901644469,8.498455047607422,0.0,4.020722620656969,1,-0.02022724037840633,0.02115279900119314,8.193445336518673e-05,8.501961708068848,1,0.0010519981384277343,0.0021473347982725005,0.00043891674384387297,-1.1326266787102275,1.5707963267948966,-0.0,0,0.001149268890273715,0.00012108342733782872,5.751190769572486e-06,0.03962018899619579
60.111563623999245,3.9546221123288023,0.0,0.0,-0.0012959249733975886,0.9777553705774236,-2.0,-1.9852403103540515,0.05128414939026571,0.0,0.0027627216186374426,0.0006087923502078585,0.5124430595631946,-0.8342887625859468,0.0006087923502078585,0.0,0.0,0.0,0.008317370761144287,-0.02716268108512913,0.0,-0.03689922411487134,0.08883393439902443,0.0,0.0004697836857153543,-0.0,0.0001390086644925042,-1.047895682897395,-1.0723839751728148,-0.02448829227541971,-0.02448829227541971,0.46250104079015164,8.498820304870605,0.0,4.020722620656969,1,-0.019830152498449882,0.020619694310053536,0.0001324987513039009,8.501961708068848,1,0.0009424209594726562,0.002173442945491168,0.000429830523199209,-1.0723839751728148,1.5707963267948966,-0.0,0,0.001149268890273715,0.00012108342733782872,5.751190769572486e-06,0.0394456590001937
60.2122985850001,3.956122535106296,0.0,0.0,-0.0013458699075454827,0.9783008113527277,-2.0,-1.9868281511770163,0.05353872645545397,0.0,0.0028995985630899668,-0.00039796368731649965,0.5635207529812678,-0.8014881369573115,-0.00039796368731649965,0.0,0.0,0.0,0.0074125560797583595,-0.02692868979883363,0.0,-0.03292962205745931,0.08714426595389353,0.0,0.00033167840423064117,-0.0,-0.0007296420915471408,-0.9929178114595736,-1.0126691982383282,-0.019751386778754654,-0.019751386778754654,0.7628128610154254,8.499239921569824,0.0,4.020722620656969,1,-0.019380025665201826,0.019836502082699402,0.00017433529622583736,8.501961708068848,1,0.0008165359497070312,0.002208826692485129,0.00042703326128220865,-1.0126691982383282,1.5707963267948966,-0.0,0,0.001149268890273715,0.00012108342733782872,5.751190769572486e-06,0.039818322999053635
60.312188400988816,3.956569775932665,0.0,0.0,-0.0013472896706103743,0.9776428625667754,-2.0,-1.987514489178999,0.05424712913692194,0.0,0.0027190165128558874,0.0004591422338232441,0.5796995767698674,-0.7890986747170429,0.0004591422338232441,0.0,0.0,0.0,0.006037837749546186,-0.02678855052804358,-0.0,-0.03121377705250228,0.08613769388510642,-0.0,0.00042088903760572916,-0.0,3.825319621751491e-05,-0.9751154530892321,-0.9926323314127264,-0.017516878323494467,-0.017516878323494467,0.44593998597110845,8.499512672424316,0.0,4.020722620656969,1,-0.019245853417291146,0.0193206819238168,0.0001879718894096216,8.501961708068848,1,0.0007733345031738281,0.002229553314352577,0.00041761042467236407,-0.9926323314127264,1.5707963267948966,-0.0,0,0.001149268890273715,0.00012108342733782872,5.751190769572486e-06,0.040032660006545484
60.413645786000416,3.958236794705373,0.0,0.0,-0.0011645920543725818,0.9774895838211342,-2.0,-1.9892806136979044,0.05740072228200462,0.0,0.002519080648198724,0.0006680817526419449,0.6284379359360139,-0.7508971234954842,0.0006680817526419449,0.0,0.0,0.0,0.00436965534655981,-0.026627576608396323,-0.0,-0.02679846575523892,0.08478447399075922,0.0,0.0004706846041304148,-0.0,0.00019739714851153007,-0.9238027730805989,-0.9326025518571367,-0.008799778776537703,-0.008799778776537703,0.4966054913779498,8.499799728393555,0.0,4.020722620656969,1,-0.018745747785478706,0.018560587818049912,0.00018580933880549513,8.501961708068848,1,0.0006485939025878906,0.002257365925611646,0.00039759516021654553,-0.9326025518571367,1.5707963267948966,-0.0,0,0.001149268890273715,0.00012108342733782872,5.751190769572486e-06,0.03935264299798291
60.52610101099708,3.9590034213487737,0.0,0.0,-0.0008807723398572831,0.9766590264085734,-2.0,-1.9907234556642568,0.06037535223192345,0.0,0.0022369904909282923,0.0009357082206186376,0.6595398663194079,-0.7228521299393458,0.0009357082206186376,0.0,0.0,0.0,0.0022247417334736543,-0.026570123545823575,-0.0,-0.02319136083935802,0.08400959577923751,0.0,0.000587114646947716,0.0,0.00034859357367092155,-0.8901179185171082,-0.8929049329772663,-0.002787014460158055,-0.002787014460158055,0.504947021420623,8.50015640258789,0.0,4.020722620656969,1,-0.018515759792458474,0.018065629189682974,0.00016262272517785778,8.501961708068848,1,0.0005733489990234374,0.002273098427537841,0.0003690674759465407,-0.8929049329772663,1.5707963267948966,-0.0,0,0.001149268890273715,0.00012108342733782872,5.751190769572486e-06,0.03934730000037234
60.61380424800154,3.9599974043624635,0.0,0.0,-0.0007286808584132665,0.9767675761360363,-2.0,-1.993334110762409,0.06610789187262688,0.0,0.001958753215149045,0.0011575149058299463,0.7062347149990927,-0.6779953381024538,0.0011575149058299463,0.0,0.0,0.0,-6.502024816369201e-05,-0.02654707067107556,-0.0,-0.016664723093977596,0.08313940925019028,0.0,0.0006823377125404467,0.0,0.0004751771932894996,-0.8194320838113374,-0.8325774224111221,-0.01314533859978484,-0.01314533859978484,0.28808420255906914,8.500377655029297,0.0,4.020722620656969,1,-0.018217564888351533,0.017341333066887513,0.00013021223020710223,8.501961708068848,1,0.00047521591186523433,0.002292777591097199,0.0003279892330873557,-0.8325774224111221,1.5707963267948966,-0.0,0,0.001149268890273715,0.00012108342733782872,5.751190769572486e-06,0.0409829609998269
60.711697190999985,3.9605666494325527,0.0,0.0,-0.0008457046605730989,0.9773562231429214,-2.0,-1.9947952569827678,0.0692900225133217,0.0,0.0018166049849241972,0.0009202133742224718,0.735651928138749,-0.6471804499224565,0.0009202133742224718,0.0,0.0,0.0,-0.000795859378493351,-0.026554685347537858,-0.0,-0.01301185754308043,0.08272783113740745,-0.0,0.0007217360808212249,0.0,0.000198477293401247,-0.8009315937401977,-0.7922837295740612,0.00864786416613672,0.00864786416613672,0.4250221498094051,8.500652313232422,0.0,4.020722620656969,1,-0.018046791367324788,0.016860288822861724,0.00012856871629173813,8.501961708068848,1,0.00041484832763671875,0.002303835534644698,0.00030081459067815504,-0.7922837295740612,1.5707963267948966,-0.0,0,0.001149268890273715,0.00012108342733782872,5.751190769572486e-06,0.04009430301084649
60.81534185199416,3.9612950257921997,0.0,0.0,-0.001566462539704827,0.9795477833053194,-2.0,-1.996376592820385,0.07238556275942779,0.0,0.0015923354076221585,0.0012466508139678755,0.7771870929671797,-0.6006111487473308,0.0012466508139678755,0.0,0.0,0.0,-4.3579865964291455e-06,-0.026563150402139336,0.0,-0.00905851794903767,0.08223353191758646,0.0,0.0008028774167895091,0.0,0.00044377339717836654,-0.7463027881527751,-0.7316977630469087,0.014605025105866254,0.014605025105866254,0.540403430211423,8.500811576843262,0.0,4.020722620656969,1,-0.017828278459430667,0.016079149845623763,0.00018150394434302884,8.501961708068848,1,0.00034503936767578126,0.0023198579909598227,0.00026556707696906955,-0.7316977630469087,1.5707963267948966,-0.0,0,0.001149268890273715,0.00012108342733782872,5.751190769572486e-06,0.03040638599486556
60.91226002199983,3.961829390831402,0.0,0.0,-0.002170124219118108,0.9818549909854276,-2.0,-1.9972642233153652,0.07408168792672838,0.0,0.001564627862535417,0.0008672380500339543,0.8036704528795452,-0.5688946501571743,0.0008672380500339543,0.0,0.0,0.0,0.0015026331132924398,-0.026521988349626605,-0.0,-0.006839441711586902,0.08201514733454052,-0.0,0.0007873181238971505,0.0,7.991992613680378e-05,-0.6906267850141559,-0.6912967621324707,-0.0006699771183149572,-0.0006699771183149572,0.24712368463097162,8.501029014587402,0.0,4.020722620656969,1,-0.01766796894766993,0.015650602711044383,0.00024794418105209123,8.501961708068848,1,0.0002984046936035156,0.002327095974950376,0.0002513240671434431,-0.6912967621324707,1.5707963267948966,-0.0,0,0.001149268890273715,0.00012108342733782872,5.751190769572486e-06,0.03746503699221648
61.03899697399174,3.9627418550081104,0.0,0.0,-0.0033170229030642373,0.9858301550197237,-2.0,-1.998095139783942,0.07532651229503305,0.0,0.00144728843588382,0.000978082765858744,0.8405929451289069,-0.5205177024849941,0.000978082765858744,0.0,0.0,0.0,0.004751041102336448,-0.02640114437464306,0.0,-0.004762150540145171,0.08176117333009945,0.0,0.0008162744775800172,0.0,0.00016180828827872684,-0.651705942694683,-0.6306980806773451,0.021007862017337953,0.021007862017337953,0.5380753998313432,8.501167297363281,0.0,4.020722620656969,1,-0.01739422969465747,0.014966138213355984,0.00037801287219363535,8.501961708068848,1,0.00023832321166992185,0.0023372362657099106,0.00023218642113734963,-0.6306980806773451,1.5707963267948966,-0.0,0,0.001149268890273715,0.00012108342733782872,5.751190769572486e-06,0.041255609001382254
61.11163784300152,3.963836819888913,0.0,0.0,-0.004555558341660992,0.9906616762977271,-2.0,-1.998571928247684,0.07576864347623485,0.0,0.0012725966516882181,0.0012299941138628396,0.8747007376990389,-0.4712218837108573,0.0012299941138628396,0.0,0.0,0.0,0.009230902356313672,-0.0262519168136531,0.0,-0.003570179380790184,0.08163574158320847,0.0,0.000880440923958669,0.0,0.00034955318990417063,-0.5939355444536702,-0.570478717531982,0.02345682692168838,0.02345682692168838,0.559675572404998,8.501351356506348,0.0,4.020722620656969,1,-0.017065740230416713,0.014460227831422338,0.0005115280190170283,8.501961708068848,1,0.00018310546875,0.002343078441696089,0.00021381428117324397,-0.570478717531982,1.5707963267948966,-0.0,0,0.001149268890273715,0.00012108342733782872,5.751190769572486e-06,0.030391484004212543
61.21357250100118,3.964606907945295,0.0,0.0,-0.005157065563511698,0.9920471404341281,-2.0,-1.9984801509786694,0.07505711860852235,0.0,0.001447125687263906,0.0005723308374721422,0.893863527849248,-0.43680555568609813,0.0005723308374721422,0.0,0.0,0.0,0.010577519317297376,-0.02592480829095742,-0.0,-0.0037996225533265537,0.08145631620302622,0.0,0.0007565322889011414,0.0,-0.00018420145142899918,-0.5539675045830004,-0.5300586913143758,0.023908813268624485,0.023908813268624485,0.5451491912116588,8.501473426818848,0.0,4.020722620656969,1,-0.016834713813502145,0.013837952613022179,0.0006603674549142355,8.501961708068848,1,0.000146484375,0.0023488436878876476,0.0002126847725448274,-0.5300586913143758,1.5707963267948966,-0.0,0,0.001149268890273715,0.00012108342733782872,5.751190769572486e-06,0.04040665799402632
61.31205914900056,3.9654292173616326,0.0,0.0,-0.005480587177488339,0.9923993438981726,-2.0,-1.9980215292121613,0.0735908050636859,0.0,0.0015251204604282975,0.0004845489652745233,0.9104112922250754,-0.4017752398400295,0.0004845489652745233,0.0,0.0,0.0,0.01135184911482668,-0.025675816205775453,-0.0,-0.004946176969596872,0.08129843119127116,0.0,0.0006909052080895701,0.0,-0.0002063562428150468,-0.5126032013107347,-0.4896243173091112,0.022978884001623623,0.022978884001623623,0.5500602803477963,8.50161361694336,0.0,4.020722620656969,1,-0.016588020988600814,0.013394946322483545,0.0007396472525827124,8.501961708068848,1,0.00010442733764648438,0.0023516325659288188,0.00022056923700227782,-0.4896243173091112,1.5707963267948966,-0.0,0,0.001149268890273715,0.00012108342733782872,5.751190769572486e-06,0.04008900199551135
61.412677674001316,3.967072266545795,0.0,0.0,-0.005424119336231881,0.9899503657402052,-2.0,-1.9962506414082406,0.06882366715024689,0.0,0.001489334972575307,0.0006043300686872163,0.9357413705985921,-0.33034302041884006,0.0006043300686872163,0.0,0.0,0.0,0.010744205517587974,-0.025317164680823786,-0.0,-0.0093733964793985,0.08092650765700508,-0.0,0.0006687135508546048,0.0,-6.438348216738845e-05,-0.4269075350378131,-0.40878058480156837,0.018126950236244888,0.018126950236244888,0.5291915561052495,8.501867294311523,0.0,4.020722620656969,1,-0.01609510623335204,0.012743306375976898,0.0007928019925000544,8.501961708068848,1,2.8324127197265624e-05,0.002353849514404452,0.0002216839157312643,-0.40878058480156837,1.5707963267948966,-0.0,0,0.001149268890273715,0.00012108342733782872,5.751190769572486e-06,0.03973003799910657
61.51854445399658,3.9674612747329916,0.0,0.0,-0.005395111466073077,0.9882471921346844,-2.0,-1.9956779232016015,0.06708356012646645,0.0,0.0015244859969243407,0.0003869707384789613,0.9401225124574554,-0.3119332915416541,0.0003869707384789613,0.0,0.0,0.0,0.009507383249088364,-0.0251087727044773,-0.0,-0.010805191995996166,0.08060255424943573,-0.0,0.0006392198310310686,0.0,-0.0002522490925521073,-0.40474185353748515,-0.3881479162250355,0.016593937312449736,0.016593937312449736,0.5195972865807301,8.501980781555176,0.0,4.020722620656969,1,-0.015978403777193107,0.012316858162472405,0.0008017363484045216,8.501961708068848,1,1.1444091796875e-05,0.0023543773874019017,0.00022403090277734508,-0.3881479162250355,1.5707963267948966,-0.0,0,0.001149268890273715,0.00012108342733782872,5.751190769572486e-06,0.040212898995378055
61.61292930599302,3.968930139791896,0.0,0.0,-0.005526991304922846,0.9858566289081018,-2.0,-1.9935387159429363,0.06097904866761304,0.0,0.0014837883645668626,0.0005111517253665067,0.9584029705749092,-0.23894661146717172,0.0005111517253665067,0.0,0.0,0.0,0.009341097892400958,-0.02481139386985304,0.0,-0.016153210142659247,0.0799083901003084,-0.0,0.0006186441963493983,0.0,-0.00010749247098289164,-0.31590459461097353,-0.3061113555597182,0.009793239051255398,0.009793239051255398,0.8136621211637691,8.50217056274414,0.0,4.020722620656969,1,-0.015537744259521745,0.011688236615869,0.0008134757767034892,8.501961708068848,1,-6.265640258789063e-05,0.002352912264342014,0.00022460616339506953,-0.3061113555597182,1.5707963267948966,-0.0,0,0.001149268890273715,0.00012108342733782872,5.751190769572486e-06,0.03985178400762379
61.71222465598839,3.969405234859265,0.0,0.0,-0.005719353277341632,0.9853010350154149,-2.0,-1.9931451287854016,0.0593668555772252,0.0,0.0015294123440980911,0.00030578144971747217,0.9620401414094742,-0.22095546940597285,0.00030578144971747217,0.0,0.0,0.0,0.009111945028718742,-0.02462268642590396,0.0,-0.017137178036495948,0.07937587472090417,-0.0,0.0005812768873362608,0.0,-0.00027549543761878865,-0.2944370448114433,-0.2859383592167628,0.008498685594680477,0.008498685594680477,0.5064158915011377,8.502273559570312,0.0,4.020722620656969,1,-0.015395215739311085,0.011276367640349552,0.0008293468292782321,8.501961708068848,1,-7.839202880859375e-05,0.0023510337102359115,0.0002255654748978747,-0.2859383592167628,1.5707963267948966,-0.0,0,0.001149268890273715,0.00012108342733782872,5.751190769572486e-06,0.039944700998603366
61.813347538991366,3.970980318451134,0.0,0.0,-0.006439369125815497,0.9867633357066004,-2.0,-1.9921457152536173,0.055588015025078305,0.0,0.001524641178548336,0.00045784639571300737,0.9742166383020816,-0.1664146921537764,0.00045784639571300737,0.0,0.0,0.0,0.011613142217200079,-0.024261597186837975,-0.0,-0.019635711865956806,0.07845420414959109,0.0,0.0005541144435730556,0.0,-9.626804786004829e-05,-0.23195425759004662,-0.2254602322349474,0.006494025355099353,0.006494025355099353,0.5219631964391819,8.502381324768066,0.0,4.020722620656969,1,-0.014922690661750426,0.010674624353228265,0.0009055351072933515,8.501961708068848,1,-0.000125885009765625,0.0023464231074465536,0.0002276271534891671,-0.2254602322349474,1.5707963267948966,-0.0,0,0.001149268890273715,0.00012108342733782872,5.751190769572486e-06,0.04014663799898699
61.91194296100002,3.971888809446994,0.0,0.0,-0.006730527566494393,0.9873376688242015,-2.0,-1.9918802921882484,0.05413605691634204,0.0,0.0016109583666548133,1.96397873190948e-05,0.9804231117839657,-0.12859590513505287,1.96397873190948e-05,0.0,0.0,0.0,0.012424180602502482,-0.024003472638629984,0.0,-0.020299269529379105,0.07781064883235071,-0.0,0.00048230643280077444,0.0,-0.00046266664548167964,-0.19093902016817976,-0.18519466483890173,0.0057443553292779725,0.0057443553292779725,0.5148338338212533,8.502544403076172,0.0,4.020722620656969,1,-0.014650143362992328,0.01028180710100909,0.0009509235228228394,8.501961708068848,1,-0.00015935897827148437,0.0023423813163422126,0.00023178008325204226,-0.18519466483890173,1.5707963267948966,-0.0,0,0.001149268890273715,0.00012108342733782872,5.751190769572486e-06,0.039832480004406534
62.02001561499492,3.9732936376761896,0.0,0.0,-0.007097842785987463,0.9889426675688139,-2.0,-1.9923542193844186,0.05419650212419834,0.0,0.0018201484344899654,-0.0003400181920628058,0.9880002616811612,-0.06928451124585235,-0.0003400181920628058,0.0,0.0,0.0,0.013482934086536894,-0.02357927482531772,-0.0,-0.019114451538953525,0.0768700706861414,0.0,0.00033278211834116234,0.0,-0.0006728003104039681,-0.12915436464758034,-0.12475909803984901,0.004395266607731152,0.004395266607731152,0.5102757529324526,8.502662658691406,0.0,4.020722620656969,1,-0.014228694894233706,0.00970890268020759,0.0010173985177818255,8.501961708068848,1,-0.00021028518676757812,0.002334728608772842,0.00025034187638663905,-0.12475909803984901,1.5707963267948966,-0.0,0,0.001149268890273715,0.00012108342733782872,5.751190769572486e-06,0.03973646298982203
62.11187900599907,3.9740719702231546,0.0,0.0,-0.007079304266615877,0.9890230267894792,-2.0,-1.9928673159836645,0.054897962921533115,0.0,0.0017600787105038762,0.00017348816981702754,0.9901265922282191,-0.02880390972231027,0.00017348816981702754,0.0,0.0,0.0,0.012960343234389816,-0.023295196441463203,-0.0,-0.017831710040838722,0.07627971287069546,0.0,0.0003446116701550114,0.0,-0.00017112350033798385,-0.06754424205218079,-0.08453329883126617,-0.016989056779085576,-0.016989056779085576,0.23785003173936975,8.502872467041016,0.0,4.020722620656969,1,-0.0139951951301442,0.009332243086087355,0.0010397393066115853,8.501961708068848,1,-0.0002514839172363281,0.0023282601963755703,0.0002576552149563193,-0.08453329883126617,1.5707963267948966,-0.0,0,0.001149268890273715,0.00012108342733782872,5.751190769572486e-06,0.040539110006648116
62.214327431996935,3.976448411861171,0.0,0.0,-0.0072527340400701384,0.9911591574740096,-2.0,-1.9937000408683394,0.056115311856241586,0.0,0.0017730124527588487,0.00017850135882824667,0.9922386498113633,0.03174689732611362,0.00017850135882824667,0.0,0.0,0.0,0.014393573734002182,-0.022829894753324833,0.0,-0.015749897829151482,0.07550156420440647,0.0,0.00029289027951201566,0.0,-0.00011438892068376899,-0.026703537555513357,-0.02457115603260937,0.002132381522903959,0.002132381522903959,0.5043903713743692,8.503026008605957,0.0,4.020722620656969,1,-0.013282262638739306,0.00879523859703278,0.0010725763307036363,8.501961708068848,1,-0.0003192901611328125,0.002316081722796119,0.00026437135694890154,-0.02457115603260937,1.5707963267948966,-0.0,0,0.001149268890273715,0.00012108342733782872,5.751190769572486e-06,0.03973806300200522
62.3121863189881,3.977631696610126,0.0,0.0,-0.006908538425062841,0.9903449694263865,-2.0,-1.994184750551636,0.05702803008335653,0.0,0.0017387432744726539,0.000395396428289426,0.9893464571034923,0.07231142717514337,0.000395396428289426,0.0,0.0,0.0,0.013103829300720713,-0.022542933075941192,-0.0,-0.014538123620910226,0.07502974787956496,0.0,0.00028118843178228785,0.0,0.00011420799650713817,0.01343903524035639,0.01543987438517683,0.002000839144820521,0.002000839144820521,0.5085690297337233,8.503262519836426,0.0,4.020722620656969,1,-0.012927277214052735,0.008451465537247953,0.0010616277319341308,8.501961708068848,1,-0.0003650665283203125,0.0023067402212964593,0.00026571696780032023,0.01543987438517683,1.5707963267948966,-0.0,0,0.001149268890273715,0.00012108342733782872,5.751190769572486e-06,0.03999321001174394
62.41510713098978,3.9801368547733524,0.0,0.0,-0.006191106915358485,0.9892251306660117,-2.0,-1.9952641908842372,0.059460064422182664,0.0,0.001870808657258749,-0.0004593923008164606,0.9820140638750658,0.13323001446316923,-0.0004593923008164606,0.0,0.0,0.0,0.011137917020744069,-0.02214954621650621,-0.0,-0.01183952278940692,0.07440322268466026,0.0,0.0001476095635172735,0.0,-0.0006070018643337341,0.07295476273336288,0.0748113583613919,0.0018565956280292006,0.0018565956280292006,0.5101801285970866,8.503436088562012,0.0,4.020722620656969,1,-0.012175729765084853,0.007951918425246918,0.0010028156300112008,8.501961708068848,1,-0.0004423141479492187,0.0022900029245760053,0.000269135819827418,0.0748113583613919,1.5707963267948966,-0.0,0,0.001149268890273715,0.00012108342733782872,5.751190769572486e-06,0.04015424000681378
62.535841611999786,3.9823146206686086,0.0,0.0,-0.004903823997510437,0.9869124175150447,-2.0,-1.9972730637647162,0.06484613196293977,0.0,0.001994331367313862,-0.000416016201820216,0.9691084625212336,0.19755993659058355,-0.000416016201820216,0.0,0.0,0.0,0.007179544824048336,-0.02197092804244454,-0.0,-0.006817340588209375,0.07412291549140237,0.0,2.301316504919248e-05,0.0,-0.00043902936686940846,0.13421581947836403,0.13549008465697202,0.0012742651786079584,0.0012742651786079584,0.5034006759673283,8.5037260055542,0.0,4.020722620656969,1,-0.011522399996507992,0.0076374962190101274,0.0008956250664003167,8.501961708068848,1,-0.0005292892456054688,0.0022766524826586462,0.0002853234053426718,0.13549008465697202,1.5707963267948966,-0.0,0,0.001149268890273715,0.00012108342733782872,5.751190769572486e-06,0.042158893003943376
62.613127060001716,3.9841964789275477,0.0,0.0,-0.0038689536019723136,0.9845911516289543,-2.0,-1.9993198859768324,0.07029177647420407,0.0,0.0018121243920177221,0.0005573578501731878,0.9525316959237631,0.2589286348910247,0.0005573578501731878,0.0,0.0,0.0,0.003130620536826489,-0.021823324913484748,-0.0,-0.001700285057918971,0.07393355109350809,0.0,7.287081833007737e-05,0.0,0.0004844870318431105,0.1935570140461711,0.19414768341717256,0.0005906693710016064,0.0005906693710016064,0.5057784505591221,8.503993034362793,0.0,4.020722620656969,1,-0.010957842518826278,0.007191683290275379,0.0007320377697323152,8.501961708068848,1,-0.0006093978881835938,0.0022539469877485454,0.0002890266563362326,0.19414768341717256,1.5707963267948966,-0.0,0,0.001149268890273715,0.00012108342733782872,5.751190769572486e-06,0.040035035999608226
62.711648804994184,3.985379201895561,0.0,0.0,-0.0034779846107952928,0.98377966990319,-2.0,-2.0003170016548113,0.07296576146519429,0.0,0.0019201990216970444,-0.000613160607038354,0.9399490161591565,0.29940322022726956,-0.000613160607038354,0.0,0.0,0.0,0.0015736328088676436,-0.021780761754373323,-0.0,0.0007925041370282493,0.07391890595933234,0.0,-2.8370701725323812e-05,0.0,-0.0005847899053130302,0.23404865269243968,0.23433688901020283,0.00028823631776297987,0.00028823631776297987,0.503247727730592,8.50412654876709,0.0,4.020722620656969,1,-0.010603025628422235,0.006903783919358937,0.0006408925139660428,8.501961708068848,1,-0.0006494522094726562,0.0022371372465552794,0.00028522948173888155,0.23433688901020283,1.5707963267948966,-0.0,0,0.001149268890273715,0.00012108342733782872,5.751190769572486e-06,0.039797391000320204
62.81259490599041,3.986468109752008,0.0,0.0,-0.003118196527964634,0.981976159371586,-2.0,-2.000810843992113,0.07446690197870294,0.0,0.001639452064409852,0.00020993654378693167,0.9250044419806099,0.3379190426427852,0.00020993654378693167,0.0,0.0,0.0,-0.0004665202805235959,-0.02176553755233399,-0.0,0.0020271099802826598,0.0740048167910652,0.0,8.915474559284377e-05,0.0,0.0001207817981940879,0.2745402913387083,0.2745649421490181,2.4650810309889692e-05,2.4650810309889692e-05,0.5045484103460276,8.504244804382324,0.0,4.020722620656969,1,-0.010276353271488237,0.006489211454799216,0.0005445398805847615,8.501961708068848,1,-0.0006849288940429687,0.002210213397658509,0.00026275880344905136,0.2745649421490181,1.5707963267948966,-0.0,0,0.001149268890273715,0.00012108342733782872,5.751190769572486e-06,0.0398565020004753
62.9116110449977,3.987221217047447,0.0,0.0,-0.0026798263519858256,0.979739884677757,-2.0,-2.0008538118584416,0.07486002376169709,0.0,0.0016493424773216248,-0.0003309548975154684,0.908404828284649,0.37455965177141537,-0.0003309548975154684,0.0,0.0,0.0,-0.0025125459076426743,-0.02180923504573397,-0.0,0.0021345296461039442,0.07407027547574555,0.0,4.855370593878864e-05,0.0,-0.0003795086034542571,0.31538099583537527,0.31482766813185564,-0.0005533277035194573,-0.0005533277035194573,0.503160126099846,8.504377365112305,0.0,4.020722620656969,1,-0.010050421082856476,0.006220052254289139,0.0004805302345434647,8.501961708068848,1,-0.0007132530212402344,0.002191376483729145,0.0002521418580640286,0.31482766813185564,1.5707963267948966,-0.0,0,0.001149268890273715,0.00012108342733782872,5.751190769572486e-06,0.03996152200852521
63.0212589839939,3.9881537815888413,0.0,0.0,-0.002478181555517822,0.9783923066390183,-2.0,-2.0012734326564323,0.07616010455205748,0.0,0.0015655583702027798,2.555525483525249e-05,0.8823455495169444,0.429555815306277,2.555525483525249e-05,0.0,0.0,0.0,-0.003938617122915954,-0.021917049509765564,-0.0,0.0031835816410807904,0.07422008551662455,-0.0,5.682276883278783e-05,0.0,-3.126751399753534e-05,0.37646751965517655,0.37537400642923946,-0.0010935132259373148,-0.0010935132259373148,0.5046288180937811,8.50444507598877,0.0,4.020722620656969,1,-0.009770651720438206,0.005828687033694016,0.0004134852317821129,8.501961708068848,1,-0.0007450103759765624,0.002161769357774103,0.00024350400312655218,0.37537400642923946,1.5707963267948966,-0.0,0,0.001149268890273715,0.00012108342733782872,5.751190769572486e-06,0.04042150799068622
63.115693059997284,3.988676751692557,0.0,0.0,-0.0023970445854277767,0.9771556798923565,-2.0,-2.0010669067861544,0.07577692063593777,0.0,0.0014571661595255136,-3.567484926030753e-05,0.863318905313021,0.46395671368791036,-3.567484926030753e-05,0.0,0.0,0.0,-0.004734698960032684,-0.022018690423664517,0.0,0.002667266965385995,0.07431221955708421,-0.0,9.209454916688439e-05,0.0,-0.00012776939842719192,0.417308224151844,0.41573270938181184,-0.0015755147700322603,-0.0015755147700322603,0.501146367453011,8.504514694213867,0.0,4.020722620656969,1,-0.009613760689323491,0.00556770933956388,0.0003864203749897853,8.501961708068848,1,-0.0007601737976074219,0.002141300890747111,0.00022952998166396498,0.41573270938181184,1.5707963267948966,-0.0,0,0.001149268890273715,0.00012108342733782872,5.751190769572486e-06,0.04109183499531355
63.216564246991766,3.989604681667122,0.0,0.0,-0.0026429873267177495,0.9769975503819104,-2.0,-2.000726168170407,0.07490527502038048,0.0,0.001306283986195922,0.0002904187121981288,0.8340772647262046,0.5142471488933947,0.0002904187121981288,0.0,0.0,0.0,-0.00418099185480762,-0.02215525130825064,-0.0,0.0018154204260178997,0.0744152726065796,-0.0,0.00014749262719175225,0.0,0.00014292608500637654,0.47787114919604745,0.4759779006060902,-0.0018932485899574303,-0.0018932485899574303,0.42582855709938683,8.504535675048828,0.0,4.020722620656969,1,-0.009335381696954049,0.005188662742223141,0.0003888004667311262,8.501961708068848,1,-0.0007721900939941406,0.002110408662486785,0.00021388646302286462,0.4759779006060902,1.5707963267948966,-0.0,0,0.001149268890273715,0.00012108342733782872,5.751190769572486e-06,0.040169861997128464
63.311590533994604,3.990190573177445,0.0,0.0,-0.002822365378402747,0.9771042113453375,-2.0,-2.000560442616022,0.07444508007883133,0.0,0.00143886124715209,-0.00011314572147898944,0.8129575827594884,0.5471514218299969,-0.00011314572147898944,0.0,0.0,0.0,-0.0036883307130898715,-0.022227742602556253,-0.0,0.0014011065400554301,0.07445902187471172,0.0,5.053137803740847e-05,0.0,-0.0001636770995163979,0.5178391890667173,0.5163580425494834,-0.0014811465172339666,-0.0014811465172339666,0.4996268022525266,8.504585266113281,0.0,4.020722620656969,1,-0.009159614243857028,0.004948123852873726,0.0004055701557565894,8.501961708068848,1,-0.0007816314697265625,0.002089882386968722,0.00021482929330561115,0.5163580425494834,1.5707963267948966,-0.0,0,0.001149268890273715,0.00012108342733782872,5.751190769572486e-06,0.03944942599628121
63.428513842998655,3.9916355549629077,0.0,0.0,-0.0035845778723311295,0.9799469116728823,-2.0,-2.0004393257407767,0.07383882386276262,0.0,0.001660599373281002,-0.0004911235577758715,0.7688296480886598,0.6120858549472643,-0.0004911235577758715,0.0,0.0,0.0,-0.00030655405946553157,-0.02228232213403699,0.0,0.0010983143519416316,0.07453694870053505,-0.0,-0.00010571378655014475,0.0,-0.00038540977122572675,0.5981243346584568,0.5971670404932516,-0.0009572941652051803,-0.0009572941652051803,0.5030368835709158,8.50465202331543,0.0,4.020722620656969,1,-0.008726119708218282,0.0045905226385983015,0.00046927144809804223,8.501961708068848,1,-0.0008070945739746093,0.0020579718878787345,0.0002335324151266356,0.5971670404932516,1.5707963267948966,-0.0,0,0.001149268890273715,0.00012108342733782872,5.751190769572486e-06,0.05281434199423529
