t,radius,set_speed_r,set_speed_r_filtered,meas_speed_r,acc_cmd_r,set_speed_theta,meas_speed_theta,acc_cmd_theta,set_speed_z,meas_speed_z,acc_cmd_z,acc_x,acc_y,acc_z,pub_vel_x,pub_vel_y,pub_vel_z,pid_r_P,pid_r_I,pid_r_D,pid_vtheta_P,pid_vtheta_I,pid_vtheta_D,pid_z_P,pid_z_I,pid_z_D,yaw_enu,yaw_target,error_yaw,total_yaw_err,yaw_rate,drone_z,target_z,r_lock_position,r_lock_active,r_pid_P,r_pid_I,r_pid_D,z_lock_position,z_lock_active,z_pid_P,z_pid_I,z_pid_D,theta_actual,theta_target,theta_lock_position,theta_lock_active,theta_pid_P,theta_pid_I,theta_pid_D,dt
50.600961303000076,3.1626161102732624,0.0,0.0,-0.028724945465698766,0.03222850869370995,-0.0,-0.012783719165153798,0.03063892169559395,0.0,0.0524694062769413,-0.14806946714499006,0.013878418280768067,0.04224700937715377,-0.14806946714499006,0.0,0.0,0.0,0.06610020495846877,0.0012252951007879376,-0.035148664875702694,0.03019239563851611,0.0005626361453920735,-0.0,-0.030276575098166288,-0.0,-0.11779289204682376,1.530304688148628,0.49327736739090206,-1.0370273207577259,-1.0370273207577259,-1.543930790800674,9.84593391418457,0.0,3.160458359151444,1,0.00043155022436369705,2.1577511218184854e-07,0.0008888362432202473,9.843677520751953,1,-0.0006769180297851562,-2.2563934326171878e-07,0.0026855914491259055,0.49327736739090206,1.5707963267948966,0.49237818427186103,1,0.000539509871424615,1.79836623808205e-07,0.0004004073261232812,0.039914519000149085
50.70127835900007,3.168706886700509,0.0,0.0,-0.025043399462397573,0.1937572397012772,-0.0,-0.011032880541484593,0.031411102762449274,0.0,0.04897672310471535,-0.11838195473534958,0.155550422972103,0.11971880063971234,-0.11838195473534958,0.0,0.0,0.0,0.062494170421920105,0.0034210951811606063,0.12780355954696315,0.029662499701395985,0.0018357997770957228,0.0,-0.02678812344575907,-0.0,-0.09159383128959052,1.5243705686918476,0.49523907440811693,-1.0291314942837309,-1.0291314942837309,-1.6834199395982463,9.844841957092285,0.0,3.160458359151444,1,0.0016497055098129822,7.580056454225252e-05,0.0016375355641199667,9.843677520751953,1,-0.0003493309020996094,-3.9834380033139166e-05,0.004719015977249647,0.49523907440811693,1.5707963267948966,0.49237818427186103,1,0.0017165340817535402,5.419009234427057e-05,0.0006793496941430418,0.040003740999964066
50.80090008100001,3.1726239950108934,0.0,0.0,0.001223188153300899,0.002526273139676225,-0.0,-0.011482649472874156,0.035459538566302996,0.0,0.019844157621264458,0.005810018547258542,-0.014668939859479087,0.03238183340563602,0.005810018547258542,0.0,0.0,0.0,0.005090848123171835,0.003893351497400813,-0.006499485530794626,0.03264324348550975,0.002811868006918175,0.0,-0.008118499473283629,-0.0,0.013928518020542171,1.5135495273294826,0.49646879300827207,-1.0170807343212105,-1.0170807343212105,-1.7204638896078799,9.835212707519531,0.0,3.160458359151444,1,0.002433127171889904,0.00016784667490479736,0.0009362361806752132,9.843677520751953,1,0.0025394439697265622,1.5074678886251806e-06,0.0037723737281765536,0.49646879300827207,1.5707963267948966,0.49237818427186103,1,0.002454365241846623,0.00011558383857314289,0.0007852393946650543,0.04003799999986768
50.901291007000054,3.177852122031195,0.0,0.0,0.01788607499494821,-0.017681543845170324,-0.0,-0.01662676787572214,0.052447974083032534,0.0,0.03396672382950783,-0.06132878769372054,-0.04058731451345594,0.037631062684289715,-0.06132878769372054,0.0,0.0,0.0,-0.03243012057734957,0.002870408161908339,0.011791176035886886,0.04721423136180274,0.005140161394683148,0.0,-0.012910738799270372,-0.0,-0.04841804889445017,1.4755013496360068,0.49801551645214764,-0.9774858331838594,-0.9774858331838594,-1.7779716310224147,9.816102981567383,0.0,3.160458359151444,1,0.0034787525759502284,0.0003589909971458809,-0.0006926324769431603,9.843677520751953,1,0.008272361755371093,0.00025148619282859005,0.003924977882524192,0.49801551645214764,1.5707963267948966,0.49237818427186103,1,0.0033823993081719683,0.00023921360313042576,0.001212633468340349,0.04001755600006618
51.003846618000125,3.178755599113171,0.0,0.0,0.02001752671761909,-0.10204215445922209,-0.0,-0.018079064624630093,0.0593313872976546,0.0,0.0384070910513401,0.006418554074628864,-0.11799169561876674,0.0032824640671803573,0.006418554074628864,0.0,0.0,0.0,-0.03787025148214178,0.0017822862727350007,-0.06605701331650125,0.05222684533754815,0.006990692956032632,0.0,-0.012373637667226349,-0.0,0.018792191741855212,1.432042651261347,0.4988483433814667,-0.9331943078798801,-0.9331943078798801,-1.7441039957467208,9.802938461303711,0.0,3.160458359151444,1,0.0036594479923453883,0.0005038556509595744,-0.001359527599386678,9.843677520751953,1,0.012221717834472656,0.0005494004964018296,0.00501324327508837,0.4988483433814667,1.5707963267948966,0.49237818427186103,1,0.003882095465763413,0.00033948132692204405,0.001438833736115427,0.04000590700002249
51.10129172899997,3.1794892009977787,0.0,0.0,0.020167847856648588,-0.05881161989240723,-0.0,-0.021527984645195238,0.07280291597531284,0.0,0.033917445689439774,-0.017816153774926395,-0.0865187418873543,0.03568723176581248,-0.017816153774926395,0.0,0.0,0.0,-0.03936007647670276,-0.0008676270627129201,-0.018729680057028762,0.06250575236731251,0.010160609246108385,0.0,-0.00599831813662248,-0.0,-0.011817835638303914,1.3489649788664169,0.5000872104858057,-0.848877768380611,-0.848877768380611,-1.6165457584793628,9.782218933105469,0.0,3.160458359151444,1,0.003806168369266949,0.0007282553871689169,-0.002257519752833986,9.843677520751953,1,0.018437576293945313,0.001209189829866611,0.00427348267125705,0.5000872104858057,1.5707963267948966,0.49237818427186103,1,0.004625415728366822,0.0005147081843551891,0.0017435970635884374,0.039984240999956455
51.20092267300015,3.1788689318222336,0.0,0.0,0.01076265195949357,-0.03545308100970005,-0.0,-0.019917651999380122,0.07233695062957488,0.0,0.03127213940024376,0.06687939708399092,-0.06581896149593569,0.04644803211183915,0.06687939708399092,0.0,0.0,0.0,-0.017606832763577086,-0.001541315966719962,-0.016429729139442458,0.059972360594789775,0.012297155119751739,0.0,-0.0013968776769191906,-0.0,0.06827627476091011,1.2791518087866436,0.5005546886389914,-0.7785971201476523,-0.7785971201476523,-1.5116300390684274,9.770127296447754,0.0,3.160458359151444,1,0.0036821145341579434,0.0008762963059725185,-0.0017988646822628407,9.843677520751953,1,0.022065067291259764,0.0017722920217400268,0.005106650625711984,0.5005546886389914,1.5707963267948966,0.49237818427186103,1,0.0049059026202782465,0.0006436591021218661,0.0017929501849423919,0.04004155500001616
51.30139235800016,3.1815098633429972,0.0,0.0,0.0009725070174922117,-0.023675289774461313,-0.0,-0.016420291419519478,0.06831318678579965,0.0,0.023321179673075676,0.11130447462310207,-0.053575112706484504,0.04854810123190964,0.11130447462310207,0.0,0.0,0.0,0.008206798458626033,-0.0009800748418534867,-0.03098676119397008,0.05303278746813166,0.015275380050301024,-0.0,0.0074219755891040485,-0.0,0.10388249903399802,1.164832742781016,0.5009676960680816,-0.6638650467129343,-0.6638650467129343,-1.3406364069346546,9.752213478088379,0.0,3.160458359151444,1,0.004210300838310666,0.0011165615516394677,-0.0006239924367188169,9.843677520751953,1,0.027439212799072264,0.0028102868819007403,0.005441639307276082,0.5009676960680816,1.5707963267948966,0.49237818427186103,1,0.005153707077732317,0.0008471979724102767,0.0016846160158523172,0.03997738900011427
51.40086635800003,3.1842968394319406,0.0,0.0,-0.013905247245698199,0.1699201625843157,-0.0,-0.009651319757533059,0.054961724233306954,0.0,0.051221638917922974,-0.10970607255547711,0.12260000869544324,0.12985719329808265,-0.10970607255547711,0.0,0.0,0.0,0.044198901429915484,-3.972672055632914e-05,0.12573173558543735,0.038202411133216596,0.016801458664478044,-0.0,-0.006766370501237055,-0.0,-0.10293970205424005,1.0784389448072957,0.5013015262595439,-0.5771374185477516,-0.5771374185477516,-1.2126752169976054,9.740397453308105,0.0,3.160458359151444,1,0.004767696056099347,0.0013007400765818091,0.00011672636249131929,9.843677520751953,1,0.030984020233154295,0.0036083467848587016,0.005351987731181551,0.5013015262595439,1.5707963267948966,0.49237818427186103,1,0.005354005192609745,0.0009888962929722473,0.0013705110901652165,0.03995050000003175
51.50433817299995,3.189078381272678,0.0,0.0,-0.02102621058652077,0.08920781907136667,-0.0,0.006127299425839978,0.019940929731671695,0.0,0.07829413563013077,-0.12552304232760791,0.06863495429262387,0.06037316217726707,-0.12552304232760791,0.0,0.0,0.0,0.06518051642755922,0.002598400327848532,0.021417129698993977,0.0021646650054308516,0.017735866256008523,0.0,-0.019116899485336274,-0.0,-0.10640614284227165,0.9384635387973512,0.501526524924849,-0.43693701387250217,-0.43693701387250217,-1.0034841821982565,9.730222702026367,0.0,3.160458359151444,1,0.005724004424246854,0.0016252568153280586,0.0012520356409766865,9.843677520751953,1,0.03403644561767578,0.004930370433744417,0.007465820436483445,0.501526524924849,1.5707963267948966,0.49237818427186103,1,0.005489004391792751,0.0012072388174957757,0.00041499485538365634,0.040236037000113356
51.600906506,3.1926706884245677,0.0,0.0,-0.01187625675752036,0.016516530029380173,-0.0,0.004098627807394653,0.023915637515548163,0.0,0.055221281945705414,0.063567323021867,0.0029846914364349067,0.028910985784227138,0.063567323021867,0.0,0.0,0.0,0.04769553936654662,0.00454902255290396,-0.03573329355077486,0.00601372290735884,0.01788666832664497,0.0,-0.0033935030588612886,-0.0,0.06696082608072829,0.8403760348352698,0.5015275647519569,-0.33884847008331276,-0.33884847008331276,-0.8569889435950829,9.726421356201172,0.0,3.160458359151444,1,0.006442465854624758,0.001875740898101378,0.0014853271109110543,9.843677520751953,1,0.035176849365234374,0.00585971443677874,0.008528879712256823,0.5015275647519569,1.5707963267948966,0.49237818427186103,1,0.005489628288057535,0.0013539327224344464,-1.1422790661492235e-05,0.039916519000144035
51.70131446899995,3.196202496016651,0.0,0.0,-0.010040387120062248,0.06285961212226253,-0.0,0.023765023645964098,-0.02262623551765278,0.0,0.10668233036994934,-0.11815180818156976,0.06598983290265381,0.010422059457775915,-0.11815180818156976,0.0,0.0,0.0,0.04603495792698451,0.007329190168838152,0.009318761721252027,-0.03880051472001832,0.016099624972034297,0.0,-0.031166335211339956,-0.0,-0.08698547297022981,0.6899286533133586,0.5021506615714441,-0.18777799174191445,-0.18777799174191445,-0.6242315939932302,9.725831031799316,0.0,3.160458359151444,1,0.007148827373041389,0.0022913441650163464,0.001444422217782065,9.843677520751953,1,0.03535394668579101,0.007265390201536832,0.012119101463721572,0.5021506615714441,1.5707963267948966,0.49237818427186103,1,0.005863486379749816,0.0015826318067732868,-0.0013176921405673285,0.03998859300008917
51.80096019200005,3.1962530387223556,0.0,0.0,0.00041977989348903136,-0.008315104311022874,-0.0,0.04011674185439583,-0.06349458135851453,0.0,0.09862607717514038,0.012457587525895177,0.023266976801164328,-0.05966029342980383,0.012457587525895177,0.0,0.0,0.0,0.022410610074066264,0.008410948904555893,-0.03964017567039682,-0.07698984983666404,0.013500537210449092,-0.0,-0.024810733181007513,-0.0,0.03726832070690269,0.5892231554732854,0.5020649238361701,-0.08715823163711534,-0.08715823163711534,-0.46818616913268524,9.726554870605469,0.0,3.160458359151444,1,0.00715893591418233,0.0025776663238024694,0.0008698185982616238,9.843677520751953,1,0.03513679504394531,0.00820164210770095,0.013936418055148269,0.5020649238361701,1.5707963267948966,0.49237818427186103,1,0.005812043738585426,0.0017382273694603754,-0.002428915543042712,0.0400741299999936
51.901302172999976,3.193305744027645,0.0,0.0,0.019761979724871703,-0.025880929711834467,-0.0,0.06324141579592132,-0.12625594460749268,0.0,0.12605491280555725,-0.07069754609849394,0.037948558329542706,-0.12316774331044825,-0.07069754609849394,0.0,0.0,0.0,-0.02471647270436922,0.007478822964678979,-0.009895736514820331,-0.13298233657610128,0.00711776557230084,-0.0,-0.039298150963662605,-0.0,-0.03139939513483134,0.44523349218375374,0.5010624964442593,0.05582900426050541,0.05582900426050541,-0.24370555089627233,9.728885650634766,0.0,3.160458359151444,1,0.006569476975240196,0.0029841951684620744,-0.0010264527389983935,9.843677520751953,1,0.03443756103515625,0.009592683468659201,0.01652775002897079,0.5010624964442593,1.5707963267948966,0.49237818427186103,1,0.005210587303438941,0.0019575980557368752,-0.004373286188755065,0.04000761099996453
52.00343215399994,3.190843252004732,0.0,0.0,0.04302270798348431,-0.12773931586610632,-0.0,0.0783572942474348,-0.17037142297801813,0.0,0.13413149118423462,-0.10361514239506062,-0.030446214284771622,-0.21075289469238948,-0.10361514239506062,0.0,0.0,0.0,-0.08031157673605444,0.0050288687544089656,-0.05438082197987953,-0.1705025155664185,0.0011875979453041603,-0.0,-0.0432090166540805,-0.0,-0.06040612574098012,0.3562217003320427,0.49988218797339296,0.1436604876413501,0.1436604876413501,-0.09737763771447173,9.730884552001953,0.0,3.160458359151444,1,0.006076978570657587,0.0032329129759498423,-0.0027924457158751393,9.843677520751953,1,0.033837890625,0.010494891673625878,0.017783681128807908,0.49988218797339296,1.5707963267948966,0.49237818427186103,1,0.0045024022209191545,0.002083029325885254,-0.00572928073865073,0.03995648199997959
52.10130039499995,3.186872425076195,0.0,0.0,0.06479119098545139,-0.21060579977254063,-0.0,0.090032876327442,-0.21329865903884365,0.0,0.1299992948770523,-0.029879171033872387,-0.08309084797612941,-0.2880052635425403,-0.029879171033872387,0.0,0.0,0.0,-0.13474750731882962,-0.000890766099403352,-0.07751106049643719,-0.20183854267979645,-0.009629689373893767,-0.0,-0.03959193754074954,-0.0,0.009712766506877156,0.25045474766118625,0.4981682416299425,0.2477134939687562,0.2477134939687562,0.08806185342007597,9.733050346374512,0.0,3.160458359151444,1,0.005282813184950186,0.0035683867466843435,-0.005308875909287519,9.843677520751953,1,0.03318815231323242,0.011827279962128913,0.018997300033775064,0.4981682416299425,1.5707963267948966,0.49237818427186103,1,0.003474034414848881,0.0022372358486233163,-0.007423186063210397,0.03994631399996251
52.200927098999955,3.1825169319158664,0.0,0.0,0.07183508064802657,-0.15563702746212968,-0.0,0.0931506151018921,-0.23031150490265506,0.0,0.15232300758361816,-0.10872103717671125,-0.026963249633802422,-0.2766572912051274,-0.10872103717671125,0.0,0.0,0.0,-0.15526834608245024,-0.006461032936589858,0.003365881508363904,-0.21113483935979344,-0.01707409009977374,-0.0,-0.052182844685330056,-0.0,-0.056538192491381194,0.19477874452256705,0.49712273940495677,0.30234399488238983,0.30234399488238983,0.1942763615817312,9.736525535583496,0.0,3.160458359151444,1,0.004411714552884494,0.0037534249064502265,-0.006906579757876429,9.843677520751953,1,0.03214559555053711,0.012693062670343494,0.020512941553854136,0.49712273940495677,1.5707963267948966,0.49237818427186103,1,0.002846733079857444,0.0023177890380697854,-0.007984288543213947,0.040053148000197325
52.30132500600007,3.1742878357834585,0.0,0.0,0.08703495978058487,-0.1955548261685775,-0.0,0.0729623583926172,-0.19692612423166891,0.0,0.13975700736045837,-0.04890615914716889,-0.07837363971567168,-0.2662314050604236,-0.04890615914716889,0.0,0.0,0.0,-0.19669906736525405,-0.016891615989287068,0.016358786290816277,-0.16778629177534005,-0.027139296822284612,0.0,-0.04547002787031361,-0.0,-0.003436131276855286,0.13735741213195363,0.4956098490980266,0.3582524369660729,0.3582524369660729,0.31280907839326366,9.74624252319336,0.0,3.160458359151444,1,0.002765895326402923,0.00395558470703693,-0.009095187237061363,9.843677520751953,1,0.029230499267578123,0.013902443611457996,0.020840684697566236,0.4956098490980266,1.5707963267948966,0.49237818427186103,1,0.0019389988956993287,0.0024055186665487417,-0.0076486554311490755,0.03992825999989691
52.40091765400007,3.1668825148628343,0.0,0.0,0.09302704171451368,-0.28294588792364295,-0.0,0.05678325782663582,-0.16511451705500627,0.0,0.13459359109401703,-0.018256430035315387,-0.17058498304019548,-0.27968185997018635,-0.018256430035315387,0.0,0.0,0.0,-0.2149366733304407,-0.024444725171349102,-0.044582632139264874,-0.13108869019424227,-0.03235782103177188,0.0,-0.04352127245868819,-0.0,0.025264842423372805,0.11484266478122684,0.4948710128821071,0.3800283481008804,0.3800283481008804,0.37042388505424967,9.754924774169922,0.0,3.160458359151444,1,0.0012848311422780868,0.004022461626454889,-0.009978738931692346,9.843677520751953,1,0.026625823974609376,0.014629894494765292,0.0208024185268287,0.4948710128821071,1.5707963267948966,0.49237818427186103,1,0.001495697166147647,0.0024484179684265673,-0.006746625578048512,0.039903629000036744
52.503241635999984,3.156016527970286,0.0,0.0,0.07790493816386486,-0.21159360130390967,-0.0,0.027980012461741133,-0.1008458900055901,0.0,0.12233925610780716,-0.010817744723499681,-0.13837509934005598,-0.18919322801413138,-0.010817744723499681,0.0,0.0,0.0,-0.18612931363455618,-0.03504286603532856,0.009330518480856953,-0.0632049238299296,-0.03695029135778877,0.0,-0.03862621396794904,-0.0,0.02780846924444936,0.10384709049366281,0.4945542816048796,0.39070719111121655,0.39070719111121655,0.37084704774967975,9.76810073852539,0.0,3.160458359151444,1,-0.0008883662362316081,0.004010109626345406,-0.009821038696501737,9.843677520751953,1,0.022673034667968748,0.015588696565513338,0.019700501594410003,0.4945542816048796,1.5707963267948966,0.49237818427186103,1,0.001305658399811127,0.002502792284240592,-0.004557949054096763,0.040101036999885764
52.60094737600002,3.1489839414806275,0.0,0.0,0.05664671372379003,-0.10440625851842483,-0.0,0.006917408428197536,-0.050818267643758665,0.0,0.1258087158203125,-0.06562163395442017,-0.06777256472244973,-0.09428702251672924,-0.06562163395442017,0.0,0.0,0.0,-0.14006371300290998,-0.040651606175789105,0.07629386511140779,-0.012901565168309153,-0.03779226600253489,0.0,-0.0424889010998179,-0.0,-0.023132732854602267,0.10995574287564258,0.49459056900648624,0.3846348261308439,0.3846348261308439,0.3553818689250197,9.777742385864258,0.0,3.160458359151444,1,-0.0022948835341632724,0.003930861572883959,-0.00865458840716245,9.843677520751953,1,0.01978054046630859,0.01613530224718306,0.019078037940457686,0.49459056900648624,1.5707963267948966,0.49237818427186103,1,0.0013274308407751235,0.002538088637368374,-0.0028124588537228492,0.040103887999975996
52.70128307999994,3.14148300184078,0.0,0.0,0.024938784292930036,-0.01893052765650546,-0.0,-0.014031649117564373,0.002863699360121383,0.0,0.10853211581707001,-0.04083496439686507,-0.01801287999168409,-0.0064885904312157565,-0.04083496439686507,0.0,0.0,0.0,-0.06797807340210166,-0.04608503954604608,0.09506991196925184,0.03976198563825538,-0.03700967706726511,0.0,-0.03564864976909057,-0.0,-0.005186314627774502,0.1384046096831506,0.4958856944303933,0.35748108474724294,0.35748108474724294,0.34489865661127467,9.793540000915527,0.0,3.160458359151444,1,-0.0037950714621327823,0.003728489879767561,-0.005893758398387313,9.843677520751953,1,0.015041255950927734,0.016795193093615816,0.01728125049070885,0.4958856944303933,1.5707963267948966,0.49237818427186103,1,0.0021045060951193737,0.0026101123034197606,-0.0006726376805328834,0.04001105600013943
52.800904154000136,3.1392848911834723,0.0,0.0,0.0016240592190341543,0.007932955706915929,-0.0,-0.026658953882354265,0.03806801036506776,0.0,0.09627655893564224,-0.005346731957235902,-0.011183453129834937,0.03724292651626053,-0.005346731957235902,0.0,0.0,0.0,-0.012522440417691832,-0.047062097300330924,0.06729110434375098,0.07265588886368912,-0.03460167008534356,0.0,-0.03076935733799646,-0.0,0.02542262538076056,0.1677261411166553,0.4971660470784069,0.32943990596175166,0.32943990596175166,0.33383773907570496,9.80446720123291,0.0,3.160458359151444,1,-0.004234693593594319,0.0035621328466650965,-0.003395398405714728,9.843677520751953,1,0.01176309585571289,0.017127811714052886,0.016103389135882367,0.4971660470784069,1.5707963267948966,0.49237818427186103,1,0.002872717683927517,0.002681998167480707,0.0008117342951871116,0.040001537000080134
52.90133209800001,3.141932099944567,0.0,0.0,-0.03986649387322926,0.10986918178120521,-0.0,-0.036878053934539363,0.070638468443423,0.0,0.07675332576036453,0.031221300328902142,0.06267706130035688,0.11459762788145003,0.031221300328902142,0.0,0.0,0.0,0.08930437119814745,-0.043797086939206004,0.06392904575502704,0.10096533746633715,-0.02985894079771035,0.0,-0.022258141338753076,-0.0,0.05347944166765522,0.2237512101056729,0.4989211590929088,0.2751699489872359,0.2751699489872359,0.29097961632289315,9.816747665405273,0.0,3.160458359151444,1,-0.0037052518413753788,0.0033247809728892555,0.001106872994414791,9.843677520751953,1,0.008078956604003906,0.0174958522885378,0.014081614636567697,0.4989211590929088,1.5707963267948966,0.49237818427186103,1,0.003925784892628658,0.0028246455160430453,0.0022648508687603576,0.040020482000045376
53.00307015399994,3.146619154339931,0.0,0.0,-0.06869871757647315,0.1991220398695888,-0.0,-0.04436620181013996,0.09573399465237736,0.0,0.07378259301185608,-0.009927411392322142,0.1287326794131398,0.1795619161878189,-0.009927411392322142,0.0,0.0,0.0,0.16148421597316195,-0.03855746377071954,0.07556974012977019,0.12213750493479837,-0.025434882997516884,-0.0,-0.022466785805370273,-0.0,0.012539374413048131,0.2687807048071269,0.5006463253133501,0.23186562050622328,0.23186562050622328,0.24782583807057937,9.823609352111816,0.0,3.160458359151444,1,-0.0027678409623026036,0.003202980688217699,0.004268059049048998,9.843677520751953,1,0.006020450592041015,0.01766956549576767,0.012647933915096934,0.5006463253133501,1.5707963267948966,0.49237818427186103,1,0.004960884624893425,0.0029496894079742795,0.0032402718546279503,0.039973276999944574
53.10132561700016,3.1562703825118645,0.0,0.0,-0.09869849928219906,0.2800464924930174,-0.0,-0.05031466280222535,0.12038986691688178,0.0,0.04500120133161545,0.018172813080121482,0.18743586736127915,0.24039041919434123,0.018172813080121482,0.0,0.0,0.0,0.24069050235172962,-0.02698027439002962,0.06553418961817672,0.1401267715610709,-0.01816353446082814,0.0,-0.008372814420524394,-0.0,0.026545627500645878,0.3366740127097061,0.5025403659740876,0.1658663532643816,0.1658663532643816,0.17331233152277808,9.830403327941895,0.0,3.160458359151444,1,-0.0008375953279158744,0.003110221612922303,0.008433648229035237,9.843677520751953,1,0.003982257843017578,0.017852671941978933,0.009211580845744947,0.5025403659740876,1.5707963267948966,0.49237818427186103,1,0.006097309021335928,0.0031786221171859206,0.00410339313246684,0.040041889000121955
53.200862543000085,3.1647459077368785,0.0,0.0,-0.1082010528647078,0.2605053541207476,-0.0,-0.04458449632225203,0.11402183709347143,0.0,0.026979630813002586,0.05469154709670958,0.1732032312730285,0.22553194792828807,0.05469154709670958,0.0,0.0,0.0,0.27014521006034925,-0.01732186396576669,0.007053907897352377,0.12904388441377262,-0.0134977260685644,0.0,0.00048642261899244847,-0.0,0.05420512447771713,0.38536869884034797,0.5033152612369314,0.11794656239658341,0.11794656239658341,0.1099182775399887,9.834197998046875,0.0,3.160458359151444,1,0.0008575097170869129,0.0031280620930258236,0.01060665262533822,9.843677520751953,1,0.0028438568115234375,0.017934117240517026,0.007012361125949538,0.5033152612369314,1.5707963267948966,0.49237818427186103,1,0.006562246179042208,0.0033507878529060505,0.004158780742969075,0.040032795999877635
53.30135404199996,3.1780724538246683,0.0,0.0,-0.1157622091934436,0.2951404361560097,-0.0,-0.046201754994057084,0.12690993395669417,0.0,0.029604420065879822,0.020466715129474407,0.1970361754850434,0.25375333286772667,0.020466715129474407,0.0,0.0,0.0,0.29768439404676705,-0.0011745455278021196,-0.0020410780331201793,0.13490727332971592,-0.006314427071796615,0.0,-0.0026079932536740348,-0.0,0.023074708383148443,0.45745079694771373,0.5044611259429279,0.0470103289952144,0.0470103289952144,0.01236278818994761,9.838696479797363,0.0,3.160458359151444,1,0.003522818934644878,0.003286008704389542,0.012740051370597905,9.843677520751953,1,0.001494312286376953,0.018008608778718994,0.005754843577993816,0.5044611259429279,1.5707963267948966,0.49237818427186103,1,0.0072497650026401295,0.003631923969374372,0.004238043911072001,0.03998966599988307
53.40087682000012,3.1867309139709428,0.0,0.0,-0.11229850275975929,0.2934499881901916,-0.0,-0.044478653274575564,0.12900325503393079,0.0,0.03946913033723831,-0.02753246661170621,0.1943847599930083,0.25489076181892806,-0.02753246661170621,0.0,0.0,0.0,0.295228648467713,0.009616308097237437,-0.012015777175541767,0.13220866963380062,-0.0016380133029460149,0.0,-0.008945830106994686,-0.0,-0.018586636504711523,0.5024802916491673,0.5050880586405823,0.0026077669914150725,0.0026077669914150725,-0.05380247498219334,9.840991973876953,0.0,3.160458359151444,1,0.005254510963899773,0.003479719630739084,0.013162106858198677,9.843677520751953,1,0.0008056640625,0.01803399013154855,0.005719759298198618,0.5050880586405823,1.5707963267948966,0.49237818427186103,1,0.007625924621232738,0.0038326418117703995,0.00415763012596703,0.04003392599997824
53.503513356999974,3.199702993935581,0.0,0.0,-0.10276772910336351,0.3268904216931309,-0.0,-0.036007524036796724,0.11846948024562438,0.0,0.04614189639687538,-0.04562503306071363,0.22861175593744448,0.26197143086905417,-0.04562503306071363,0.0,0.0,0.0,0.2798084703359048,0.024884335388505013,0.021792409051167194,0.1144011327593105,0.005224833411073079,-0.0,-0.013253903340262335,-0.0,-0.032371129720451294,0.5663593422721602,0.5056032057340164,-0.060756136538143934,-0.060756136538143934,-0.15641541268308234,9.84407901763916,0.0,3.160458359151444,1,0.007848926956827462,0.0039008164682663633,0.012668195806044802,9.843677520751953,1,-0.00012044906616210937,0.01804007823021272,0.006132428332387544,0.5056032057340164,1.5707963267948966,0.49237818427186103,1,0.007935012877293224,0.004146615966643121,0.003911362009862612,0.04011792599999353
53.60087630199996,3.207248365475174,0.0,0.0,-0.07942834083636184,0.2705236254136868,-0.0,-0.037132138489304904,0.1258482334466397,0.0,0.031286418437957764,-0.016086690699833695,0.1757038103017548,0.24114099778770434,-0.016086690699833695,0.0,0.0,0.0,0.22947444951178614,0.03342472923859624,0.007194546776650446,0.11713796991403197,0.009629850610322083,-0.0,-0.005242479598012123,-0.0,-0.010844211101821571,0.6042329870404366,0.5056854536881719,-0.09854753335226452,-0.09854753335226452,-0.21994501963264843,9.845932006835938,0.0,3.160458359151444,1,0.00935800126474602,0.0042610224813435195,0.011259203377451402,9.843677520751953,1,-0.0006763458251953124,0.018024165866262005,0.005201132400204202,0.5056854536881719,1.5707963267948966,0.49237818427186103,1,0.007984361649786498,0.004358798660491108,0.0037692329795229306,0.04003129600005195
53.70128804199999,3.215406091880521,0.0,0.0,-0.052231829338848706,0.09369358335060415,-0.0,-0.042537469098133884,0.14490559944297496,0.0,0.02205279842019081,0.0006001117688358229,0.011761923670206953,0.1721562588539282,0.0006001117688358229,0.0,0.0,0.0,0.16947234457212323,0.04431127819458965,-0.12065277899722848,0.1295334215946718,0.016063166719678012,0.0,-0.0009595562198745425,-0.0,0.0015596679887103654,0.6475171524898964,0.5057545766989848,-0.14176257579091178,-0.14176257579091178,-0.29861256427189736,9.848387718200684,0.0,3.160458359151444,1,0.010989546545815455,0.004891446057391985,0.008920061954363498,9.843677520751953,1,-0.0014130592346191407,0.017976904840147506,0.003889692448204877,0.5057545766989848,1.5707963267948966,0.49237818427186103,1,0.008025835456274277,0.004679467349560153,0.0036360560936097744,0.04002799999989293
53.80095802400001,3.21891251356181,0.0,0.0,-0.049014182045361177,0.25888643699828046,-0.0,-0.03554897087431031,0.13426780240559633,0.0,0.028340164572000504,-0.059598257729888963,0.16144575616998208,0.2428688902251492,-0.059598257729888963,0.0,0.0,0.0,0.16147105082848473,0.050031089630109375,0.04699170142413157,0.11438935151362754,0.020419752875982834,-0.0,-0.005595732870081071,-0.0,-0.054002524859807895,0.6640977803838424,0.5056807001178985,-0.15841708026594414,-0.15841708026594414,-0.31923034690141394,9.85183334350586,0.0,3.160458359151444,1,0.011690830882073212,0.005352533940591163,0.007338385326740223,9.843677520751953,1,-0.002446746826171875,0.01791759661670626,0.003543093331331,0.5056807001178985,1.5707963267948966,0.49237818427186103,1,0.007981509507622452,0.004891957115729311,0.003572722281259531,0.0399847400001363
53.90132683800016,3.2212618194660907,0.0,0.0,-0.024064918879377693,0.17947613991015862,-0.0,-0.0336673374213213,0.13763444249207069,0.0,0.009530174545943737,-0.024726259684451468,0.09028811803637388,0.20737159954681297,-0.024726259684451468,0.0,0.0,0.0,0.10366719931693077,0.05642962090077111,0.019027442175953296,0.11105194913737397,0.02683401024135048,-0.0,0.003645088609660911,-0.0,-0.028371348294112378,0.6693337681398255,0.5059465690457909,-0.16338719909403476,-0.16338719909403476,-0.30175118153911157,9.857497215270996,0.0,3.160458359151444,1,0.012160692062929357,0.006075416294459517,0.004820426998201966,9.843677520751953,1,-0.004145908355712891,0.017769540863879038,0.0019816897205457732,0.5059465690457909,1.5707963267948966,0.49237818427186103,1,0.008141030864357945,0.005215268702384847,0.0034545217107422553,0.0400337959999888
54.003634487,3.2210319801645415,0.0,0.0,-0.011634287053711846,0.016838069369774472,-0.0,-0.027258919181760943,0.12644302095988194,0.0,-0.015333831310272217,0.1376058931374827,-0.046511700183665565,0.11877718583796842,0.1376058931374827,0.0,0.0,0.0,0.07437517446837597,0.05973435080258816,-0.11750214242635722,0.09610956210122805,0.030431917393833767,-0.0,0.017293142302113068,-0.0,0.12031275083536963,0.6604325889546545,0.5056218819516504,-0.15481070700300403,-0.15481070700300403,-0.2783049513193521,9.86081314086914,0.0,3.160458359151444,1,0.01211472420261952,0.006560839274447331,0.003497046954846744,9.843677520751953,1,-0.00514068603515625,0.01763721102464193,0.0009915475370972182,0.5056218819516504,1.5707963267948966,0.49237818427186103,1,0.0079462186078736,0.00542851435200017,0.0030525124498325825,0.03997924099985539
54.10137111600011,3.2161367297651124,0.0,0.0,0.0025603105589967964,0.012556616895583532,-0.0,-0.00804814854284686,0.08492886048278225,0.0,-0.029462125152349472,0.13040033338357018,-0.030104392023891514,0.08040090516678405,0.13040033338357018,0.0,0.0,0.0,0.03810016381265274,0.06268276030479294,-0.08824644712896507,0.05103436564856381,0.03388808784302808,0.0,0.02399894389862413,-0.0,0.10640138948494604,0.6333799855487423,0.5050548248928171,-0.12832516065592525,-0.12832516065592525,-0.2504050068169115,9.862922668457031,0.0,3.160458359151444,1,0.011135674122733709,0.007251288210461188,0.0014916045042804194,9.843677520751953,1,-0.0057735443115234375,0.017412898578247342,-0.0011032395880331573,0.5050548248928171,1.5707963267948966,0.49237818427186103,1,0.007605984372573615,0.005737549868283062,0.0018057561474618317,0.0400120550000338
54.2008593380001,3.2128503657594676,0.0,0.0,0.0056440984458294985,0.15557963641558833,-0.0,0.01594876968373138,0.029953615333665806,0.0,-0.01844916120171547,-0.07281779064884028,0.12167082269830605,0.10148129503845157,-0.07281779064884028,0.0,0.0,0.0,0.028158575774900295,0.06349643876209815,0.06384545129002606,-0.004363124820857529,0.03434475777624148,-0.0,0.01620333777062972,-0.0,-0.08902112841947,0.6077236455444255,0.5049676978262329,-0.10275594771819252,-0.10275594771819252,-0.21831494139316457,9.862672805786133,0.0,3.160458359151444,1,0.010478401321604736,0.007676634625556466,0.000288415123622972,9.843677520751953,1,-0.005698585510253906,0.017259338867612523,-0.003004351608024551,0.5049676978262329,1.5707963267948966,0.49237818427186103,1,0.007553708132623093,0.005939619903199553,0.00047220309297349216,0.0400620179998441
54.30130015300006,3.2057972742436287,0.0,0.0,0.026796669486379654,0.02992714026666021,-0.0,0.03856228365704541,-0.028418070862101772,0.0,-0.03770359233021736,-0.016913971064354105,0.03992331029134245,-0.010457044106485496,-0.016913971064354105,0.0,0.0,0.0,-0.02448505105513982,0.06288194464092701,-0.008933616000898493,-0.06036720983966266,0.03227147401044024,-0.0,0.02667376275861051,-0.0,-0.04358773382296462,0.5621705520673737,0.5033660404538282,-0.05880451161354561,-0.05880451161354561,-0.1541574252043647,9.861145973205566,0.0,3.160458359151444,1,0.00906778301843696,0.008250843201723701,-0.001651525395208197,9.843677520751953,1,-0.005240535736083984,0.017037393314164123,-0.00504417864394665,0.5033660404538282,1.5707963267948966,0.49237818427186103,1,0.006592713709180275,0.0062186997102492625,-0.0016887705985944273,0.039920277999954124
54.400899134000156,3.2011644627764912,0.0,0.0,0.037127437882766554,-0.021871626982252108,-0.0,0.06114135702999243,-0.08771913881485309,0.0,-0.06407802551984787,0.14895598004766122,0.023001658695517516,-0.08742962357533725,0.14895598004766122,0.0,0.0,0.0,-0.051243274847829756,0.06127155745066764,-0.03306769261621444,-0.11573164549662247,0.02872163049018198,-0.0,0.04221902287476307,-0.0,0.10673695717289816,0.5293583621298801,0.5016126332192857,-0.027745728910594458,-0.027745728910594458,-0.10330636850593418,9.857760429382324,0.0,3.160458359151444,1,0.008141220725009468,0.008585572368527755,-0.0028917528688751012,9.843677520751953,1,-0.004224872589111328,0.016916834662030335,-0.006404949468161759,0.5016126332192857,1.5707963267948966,0.49237818427186103,1,0.00554066936845482,0.00637332582911954,-0.0033779315751375967,0.04001873999982308
54.50320346800004,3.1918749024360444,0.0,0.0,0.05254852166932666,-0.027764425208465764,-0.0,0.0801482330862254,-0.14681258327574323,0.0,-0.04690463840961456,0.03418014080941685,0.045771285289455635,-0.14223145699248385,0.03418014080941685,0.0,0.0,0.0,-0.09281307841611693,0.05664399554732308,0.006392129142389832,-0.16644851746404482,0.0209554317537843,-0.0,0.034191957128809514,-0.0,-1.1816319392665004e-05,0.4806636759992382,0.49824995580686776,0.017586279807629612,0.017586279807629612,-0.028924989879739058,9.843223571777344,0.0,3.160458359151444,1,0.0062833086569201065,0.00900096104148446,-0.004923510945494685,9.843677520751953,1,0.00013618469238281248,0.016849576303518434,-0.006903804190833278,0.49824995580686776,1.5707963267948966,0.49237818427186103,1,0.0035230629210040386,0.006542054405578601,-0.005575301269468515,0.040157333000024664
54.60093518999997,3.183449482162007,0.0,0.0,0.07113614099507339,-0.22003485575916076,-0.0,0.08436857481881094,-0.16990404866654932,0.0,-0.055126503109931946,0.10008436927875165,-0.11279109283119357,-0.25408835644355077,0.10008436927875165,0.0,0.0,0.0,-0.1399369293515816,0.05231471993250725,-0.13464860342275484,-0.18211870595961027,0.014099925103181296,0.0,0.041913746636323475,-0.0,0.05817062264242818,0.45012041408933756,0.4954837203748618,0.045363306285524096,0.045363306285524096,0.017248828072117736,9.82720947265625,0.0,3.160458359151444,1,0.0045982246021126555,0.009200351875548686,-0.006270130642397783,9.843677520751953,1,0.004940414428710937,0.016951620968323446,-0.007162294113093864,0.4954837203748618,1.5707963267948966,0.49237818427186103,1,0.0018633216618004766,0.006601931051762861,-0.006877907876393431,0.03996866600004978
54.70130563399994,3.1713729382430693,0.0,0.0,0.07642436842667634,-0.10252019503430522,-0.0,0.08588652705222127,-0.19139858776884014,0.0,-0.026597943156957626,-0.021590921867111024,-9.007438521366207e-05,-0.2171262344268502,-0.021590921867111024,0.0,0.0,0.0,-0.16040256588196333,0.043875186098425334,0.011681221933526062,-0.19283204133519405,0.0035031639770011875,0.0,0.030796704484362048,-0.0,-0.05238762635147307,0.41224676932106075,0.4913343950269212,0.07908762570586036,0.07908762570586036,0.0766930295140618,9.799091339111328,0.0,3.160458359151444,1,0.002182915818325082,0.009377849757495027,-0.008046654368218003,9.843677520751953,1,0.0133758544921875,0.01736916410156334,-0.0060151209434383835,0.4913343950269212,1.5707963267948966,0.49237818427186103,1,-0.0006262735469638847,0.006609143631702636,-0.007747270912151128,0.040014241000108086
54.80089504200009,3.164078821406947,0.0,0.0,0.07689611367411966,-0.07758282852543587,-0.0,0.08158223878068195,-0.1933319587686778,0.0,-0.017835963517427444,-0.04920743759351705,0.02215186473579306,-0.20713675784869293,-0.04920743759351705,0.0,0.0,0.0,-0.16610319733677534,0.03766525451714144,0.048751607377923195,-0.18786393795218495,-0.0034853404026468373,0.0,0.029547270883215727,-0.0,-0.07875470847673277,0.39357174632472125,0.4881590956885168,0.09458734936379543,0.09458734936379543,0.09344931305418001,9.78082275390625,0.0,3.160458359151444,1,0.0007240924511005887,0.009421315070740517,-0.008750747182619305,9.843677520751953,1,0.018856430053710935,0.017834683645588767,-0.005281625744700929,0.4881590956885168,1.5707963267948966,0.49237818427186103,1,-0.002531453150006546,0.006554040770914562,-0.007833047909401036,0.040051018999974985
54.90137424499994,3.1531646056945837,0.0,0.0,0.0736839014968832,-0.12071347029785133,-0.0,0.06240549828030008,-0.16186907534184708,0.0,-0.008013899438083172,0.014108579523482549,-0.03138672168141948,-0.19946983021366393,0.014108579523482549,0.0,0.0,0.0,-0.16463028880213332,0.028246978590657223,0.014434748599781139,-0.14836444908305646,-0.012046319711823452,0.0,0.03047869772997187,-0.0,-0.01637011820648932,0.3787364476827695,0.4847029467285063,0.10596649904573674,0.10596649904573674,0.09032999911275458,9.752974510192871,0.0,3.160458359151444,1,-0.0014587506913720462,0.009378106414358493,-0.009067403681618388,9.843677520751953,1,0.02721090316772461,0.018812419068051613,-0.0032393921239062765,0.4847029467285063,1.5707963267948966,0.49237818427186103,1,-0.004605142526012851,0.006395007772579674,-0.006822752913110583,0.03999964800004818
55.00281206,3.1451966340072253,0.0,0.0,0.07516425936278008,-0.1643673611149683,-0.0,0.03769061255137665,-0.11039014375724963,0.0,0.005091117694973946,0.01738912459851998,-0.09429106176180503,-0.17410286876004114,0.01738912459851998,0.0,0.0,0.0,-0.17149705981915384,0.02210640367490175,-0.015428372208032346,-0.09355481274066288,-0.015934596561156443,0.0,0.027231953131086093,-0.0,-0.009842828532566114,0.37646751965517655,0.4830241628064676,0.10655664315129121,0.10655664315129121,0.07364701226597854,9.73625373840332,0.0,3.160458359151444,1,-0.0030523450288437283,0.009272709592648396,-0.009009314209730869,9.843677520751953,1,0.03222713470458984,0.019633867137464747,-0.0013832955952704862,0.4830241628064676,1.5707963267948966,0.49237818427186103,1,-0.005612412879236061,0.006251783252143161,-0.005473672703649937,0.039934204000019236
55.101308634000134,3.1368118842669195,0.0,0.0,0.05786174294919264,-0.09029207481318491,-0.0,0.010089987783272823,-0.0491978844633855,0.0,0.030752895399928093,0.01034863678464214,-0.057269324544291206,-0.08540090793418449,0.01034863678464214,0.0,0.0,0.0,-0.13545242502307211,0.014139977237161922,0.0309879171362828,-0.030372988330479175,-0.018638775861427988,0.0,0.01796887677480125,-0.0,-0.007620239990159109,0.3824016391119578,0.4811799493661356,0.09877831025417771,0.09877831025417771,0.04962675401540581,9.718805313110352,0.0,3.160458359151444,1,-0.004729294976904885,0.009020605613745753,-0.007998851789044633,9.843677520751953,1,0.03746166229248047,0.021063442914902836,0.0021759181505468725,0.4811799493661356,1.5707963267948966,0.49237818427186103,1,-0.006718940943435247,0.005996039808931381,-0.002993014868804752,0.0400029079999058
55.20085572700009,3.131228641344764,0.0,0.0,0.05107522931673787,-0.1065112860974838,-0.0,-0.012095133098102685,0.003114031404251645,0.0,0.05633696913719177,-0.046121134279532634,-0.09589336527936061,-0.046463036417412756,-0.046121134279532634,0.0,0.0,0.0,-0.12158180713435698,0.00963596486275697,0.005387835777295254,0.021139776477556743,-0.0182230355836323,0.0,0.007445392907588294,-0.0,-0.053566527187120926,0.3914773512223282,0.48042201507920973,0.0889446638568816,0.0889446638568816,0.03390456585312016,9.704480171203613,0.0,3.160458359151444,1,-0.005845943561335965,0.00879666924820762,-0.007139954158477864,9.843677520751953,1,0.04175920486450195,0.022149547401266134,0.004837205050737506,0.48042201507920973,1.5707963267948966,0.49237818427186103,1,-0.0071737015155907795,0.0058067365256262845,-0.0011191788001578527,0.03998659199987742
55.30125217099999,3.124650211824973,0.0,0.0,0.03241875861431725,-0.0459654873150003,-0.0,-0.03504451394170713,0.06246193561188085,0.0,0.07211488485336304,0.01509836708682888,-0.06963854315439094,0.03412905993170971,0.01509836708682888,0.0,0.0,0.0,-0.08073147715690432,0.004339610328090325,0.030033337773409344,0.07696200391760587,-0.014863660887682767,0.0,0.004790465422199727,-0.0,0.010307901664629153,0.40962877544306897,0.4806959257559971,0.0710671503129281,0.0710671503129281,0.02192109543043429,9.685257911682129,0.0,3.160458359151444,1,-0.007161629465294173,0.008390105344270612,-0.005505843245070246,9.843677520751953,1,0.047525882720947266,0.02396891891276328,0.008604192256652033,0.4806959257559971,1.5707963267948966,0.49237818427186103,1,-0.007009355109518345,0.005522497493185639,0.0014250727280827875,0.03991844500001207
55.40086133800014,3.1208259972726298,0.0,0.0,0.028823014957200396,-0.08791165194165279,-0.0,-0.050801737454561846,0.10386207564261529,0.0,0.08995936810970306,-0.005040980294771052,-0.12597897536178798,0.05143040997986175,-0.005040980294771052,0.0,0.0,0.0,-0.07293916706237932,0.0017213400888956034,-0.017520790819728144,0.11457198197450733,-0.011179095975846633,0.0,-0.0015839859612988504,-0.0,-0.003456994333472202,0.4235914094590236,0.48078560339903886,0.057194193940015126,0.057194193940015126,0.005059658365768903,9.673710823059082,0.0,3.160458359151444,1,-0.007926472375762827,0.008080516495053681,-0.004485196008626513,9.843677520751953,1,0.05099000930786133,0.025298386174125543,0.011030996025551439,0.48078560339903886,1.5707963267948966,0.49237818427186103,1,-0.0069555485236933,0.00533707795922407,0.0028949067346834404,0.04002953700000944
55.5037747450001,3.116410555828405,0.0,0.0,0.013024287059467073,-0.08134967239361793,-0.0,-0.05260223691077546,0.11667999702567754,0.0,0.12678521871566772,-0.04415748378166314,-0.12613134297382492,0.0657485758330964,-0.04415748378166314,0.0,0.0,0.0,-0.037083240343650174,-0.0002880792599173873,-0.044866231738747424,0.12146953897599859,-0.005009380325664354,0.0,-0.01770096281428306,-0.0,-0.026456520967380083,0.44470989340815503,0.4814308246434731,0.036720931235318055,0.036720931235318055,-0.017702611510521608,9.6632719039917,0.0,3.160458359151444,1,-0.008809560664607741,0.0075684991243561255,-0.002590669738304118,9.843677520751953,1,0.05412168502807617,0.027417926278578864,0.015744002718540925,0.4814308246434731,1.5707963267948966,0.49237818427186103,1,-0.006568415777032766,0.0050689645652870876,0.0041106411082423005,0.040196981000008236
55.600858319000054,3.112885931335799,0.0,0.0,0.0024480240120609183,0.07113374601803227,-0.0,-0.05273335001796002,0.12332624087608195,0.0,0.15391913056373596,-0.11597932231784443,0.0058460871281279456,0.1422504649429085,-0.11597932231784443,0.0,0.0,0.0,-0.014316253486889146,-0.0012522225222690747,0.08580890108146494,0.12358547748153782,-0.0003007069676624883,-0.0,-0.030534795678230753,-0.0,-0.08544452663961367,0.4588470603493091,0.48210690201327133,0.023259841663962,0.023259841663962,-0.03306543070581629,9.658888816833496,0.0,3.160458359151444,1,-0.009514485563128972,0.007194124326389237,-0.0017390026997853223,9.843677520751953,1,0.05543661117553711,0.028887607940831585,0.018703585316982674,0.48210690201327133,1.5707963267948966,0.49237818427186103,1,-0.006162769355153819,0.004901912445186309,0.004702723929070134,0.04005138899992744
55.701286540999945,3.106955971970004,0.0,0.0,-0.000281934575864725,0.08400055279426294,-0.0,-0.05713192583026827,0.14302607173723703,0.0,0.18269239366054535,-0.13823755612938077,0.007919993091022468,0.16567988343720305,-0.13823755612938077,0.0,0.0,0.0,-0.010563386011529311,-0.002408973805604832,0.09592234833609914,0.1356966681164715,0.007334587944400165,-0.0,-0.043030931598894644,-0.0,-0.09520662453048612,0.47856928089684514,0.48326927167602485,0.004699990779179597,0.004699990779179597,-0.058559087033071444,9.654218673706055,0.0,3.160458359151444,1,-0.010700477436287948,0.006576335239228098,-0.0009593314749545616,9.843677520751953,1,0.05683765411376953,0.03114349918175053,0.022993021033534223,0.48326927167602485,1.5707963267948966,0.49237818427186103,1,-0.0054653475575017095,0.004673317058860379,0.005340408357678282,0.04000405600004342
55.80094646700013,3.102031198311888,0.0,0.0,-0.004515407482634341,0.0128952423382352,-0.0,-0.049993023189838386,0.13212073666473245,0.0,0.18672959506511688,-0.04715020836647012,-0.05003569676712774,0.12295773819008479,-0.04715020836647012,0.0,0.0,0.0,-0.002967577261209208,-0.0026221461356571805,0.01767926707900173,0.12015223502633536,0.012041272947439313,-0.0,-0.04279780836045289,-0.0,-0.004352400006017226,0.48973938810960904,0.4837635137577743,-0.005975874351834776,-0.005975874351834776,-0.06681083973109288,9.653263092041016,0.0,3.160458359151444,1,-0.01168543216791118,0.006116739910800945,-0.00029561398061919974,9.843677520751953,1,0.05712432861328125,0.032669560984686805,0.02560602486639401,0.4837635137577743,1.5707963267948966,0.49237818427186103,1,-0.005168802308452025,0.004533113690594187,0.005257317712717343,0.040029592999871966
55.901316393000116,3.0961383845766894,0.0,0.0,-0.004953122804548432,0.013091407182168753,-0.0,-0.05256786526720142,0.1449631640706355,0.0,0.20788197219371796,-0.09872589068968132,-0.055879281234453834,0.1343994412492111,-0.09872589068968132,0.0,0.0,0.0,-0.0053311460063046,-0.0031476325857975607,0.02067766092056401,0.12583538670450256,0.019211874089179473,-0.0,-0.053149618245175986,-0.0,-0.045576272444505336,0.5030038904247656,0.4840912106796602,-0.018912679745105354,-0.018912679745105354,-0.07802149252519772,9.657508850097656,0.0,3.160458359151444,1,-0.012863994914950895,0.00536589895327709,0.0001217249724414637,9.843677520751953,1,0.05585060119628906,0.03492422899576066,0.028524444926374924,0.4840912106796602,1.5707963267948966,0.49237818427186103,1,-0.004972184155320491,0.0043320065529719445,0.0052702153826482846,0.04002662900006726
56.00326072600001,3.092047710595837,0.0,0.0,-0.009293756006130771,-0.016334924382568925,-0.0,-0.046985998278495415,0.13607537323416627,0.0,0.19331805408000946,0.01779344212322357,-0.07783387469096116,0.11280613860067039,0.01779344212322357,0.0,0.0,0.0,0.002318672939757767,-0.0030327817144563006,-0.016334803308209387,0.11296591268856426,0.02325068618135415,0.0,-0.044118341698087656,-0.0,0.061911783821311225,0.5077162794051504,0.48449727859432584,-0.023219000810824397,-0.023219000810824397,-0.0777479707484526,9.663667678833008,0.0,3.160458359151444,1,-0.013682129711121416,0.004826404519093242,0.0006159114312418423,9.843677520751953,1,0.05400295257568359,0.03637560793438998,0.029408924073123132,0.48449727859432584,1.5707963267948966,0.49237818427186103,1,-0.004728543406521113,0.004204377255097346,0.004886310004093922,0.04002796300005684
56.101296262999995,3.0876299008538424,0.0,0.0,-0.019635702102477212,0.08167745065147251,-0.0,-0.032734461561001675,0.10822949016086124,0.0,0.21847622096538544,-0.11671832650813048,0.021897865747266904,0.133810731860783,-0.11671832650813048,0.0,0.0,0.0,0.022448382530480256,-0.0028919684723070598,0.06177399209376511,0.07957731970113932,0.02886034441720273,-0.0,-0.058582166573232335,-0.0,-0.058136159934898145,0.5096361415823445,0.4842724162566524,-0.025363725325691977,-0.025363725325691977,-0.0808737897414527,9.672274589538574,0.0,3.160458359151444,1,-0.014565691659520309,0.003967088680173838,0.0011667111179966458,9.843677520751953,1,0.05142087936401367,0.038471835034317635,0.03094656227833358,0.4842724162566524,1.5707963267948966,0.49237818427186103,1,-0.004863460809125175,0.004012617024045993,0.00428789117914083,0.03999183299993092
56.20088024400002,3.0862993928720135,0.0,0.0,-0.007532501387621751,-0.10524331695660796,-0.0,-0.026925857773181433,0.09502155064973654,0.0,0.18823832273483276,0.058234210164112024,-0.13735540293821794,0.035195797129618824,0.058234210164112024,0.0,0.0,0.0,-0.005682921993080387,-0.0025819721389843944,-0.09721333257390062,0.06382005401854042,0.03126721256967824,-0.0,-0.040945377421711504,-0.0,0.09917958758582353,0.5087634769563469,0.48355928982149066,-0.025204187134856504,-0.025204187134856504,-0.08382753468934329,9.678062438964844,0.0,3.160458359151444,1,-0.014831793255886084,0.0033756630223625616,0.0013404824854106867,9.843677520751953,1,0.04968452453613281,0.039809225591656006,0.030502276904191432,0.48355928982149066,1.5707963267948966,0.49237818427186103,1,-0.005291336670222224,0.0038735552816426344,0.003501039078371074,0.03998683299982986
56.30138557800001,3.0855456473153833,0.0,0.0,-0.015591860637214185,-0.046833237441688144,-0.0,-0.009139014685238051,0.05172406798117205,0.0,0.19151246547698975,-0.011254594820123441,-0.06547840433295621,0.024110369217420734,-0.011254594820123441,0.0,0.0,0.0,0.011021244152150125,-0.0014988514138139222,-0.05638269884111827,0.019004282858400938,0.03276596633660526,-0.0,-0.0440119090659988,-0.0,0.03275731424587536,0.5044001538263609,0.4821695633895904,-0.02223059043677056,-0.02223059043677056,-0.08308836387066643,9.688801765441895,0.0,3.160458359151444,1,-0.014982542367212127,0.0024779944376301082,0.0019223437251633434,9.843677520751953,1,0.046462726593017575,0.04170883264782618,0.02998772445948132,0.4821695633895904,1.5707963267948966,0.49237818427186103,1,-0.006125172529362388,0.003641206589826702,0.001983261644479878,0.039973536999923454
56.400930947999996,3.0856261002654657,0.0,0.0,-0.026245531520167863,0.04819040804914716,-0.0,0.004064473575733227,0.01757639131501703,0.0,0.18627209961414337,-0.005530651730604685,0.03459544872071859,0.03787347208025751,-0.005530651730604685,0.0,0.0,0.0,0.034280612003840305,-0.0004148345950012132,0.014319276801277989,-0.01472304200424689,0.032264861966196996,0.0,-0.0418812033733247,-0.0,0.03635055164272002,0.49968776484597655,0.4808660424089575,-0.018821722437019073,-0.018821722437019073,-0.07743657030366344,9.696076393127441,0.0,3.160458359151444,1,-0.014966451777195645,0.0018795010453810366,0.0024235155770287024,9.843677520751953,1,0.04428033828735351,0.04290200031967264,0.029287755384909388,0.4808660424089575,1.5707963267948966,0.49237818427186103,1,-0.006907285117742135,0.003462354446446726,0.0008171124269164123,0.04008342600013748
56.50407704100007,3.0864627720284865,0.0,0.0,-0.028034165976561966,0.06263735739231954,-0.0,0.01959405855734076,-0.02516197486987762,0.0,0.17670992016792297,-0.05883727934597606,0.06718576131391442,0.006529701150530642,-0.05883727934597606,0.0,0.0,0.0,0.03749572384325746,0.001242209498429151,0.023775033394044465,-0.05540190703483889,0.03006196044447622,-0.0,-0.03830832978579086,-0.0,-0.020528949560185198,0.48973938810960904,0.4788630569521329,-0.010876331157476216,-0.010876331157476216,-0.05208036794357405,9.707724571228027,0.0,3.160458359151444,1,-0.01479911742459148,0.000986376800976562,0.0028220854848972515,9.843677520751953,1,0.04078588485717773,0.044585338632389435,0.02749148036870439,0.4788630569521329,1.5707963267948966,0.49237818427186103,1,-0.008109076391836889,0.003152151983978906,-0.0006317020506371114,0.040122740000015256
56.60091020699997,3.0875004146461396,0.0,0.0,-0.02165391252250013,0.05060175743076848,-0.0,0.015910296474502907,-0.02243582511911416,0.0,0.14723382890224457,0.02993716537014546,0.05525342749877972,0.0033110200082301366,0.02993716537014546,0.0,0.0,0.0,0.022325937115127734,0.0020173569631865692,0.026176475498232106,-0.05089780777480811,0.02835039719114417,-0.0,-0.022722976107526483,-0.0,0.052660141477671944,0.4817108735504352,0.4771880813230437,-0.004522792227391381,-0.004522792227391381,-0.04887823971827059,9.714866638183594,0.0,3.160458359151444,1,-0.01459158890106087,0.000401090963103447,0.002684738649606262,9.843677520751953,1,0.038643264770507814,0.045627132756045734,0.025091804529813556,0.4771880813230437,1.5707963267948966,0.49237818427186103,1,-0.009114061769290404,0.002914606574936791,-0.0010256155015108035,0.040052758999991056
56.701289076999956,3.087971307514684,0.0,0.0,-0.018149294714089353,0.041823236779599746,-0.0,0.018316611714293288,-0.03558405779056757,0.0,0.129447802901268,0.06632601575862303,0.05346079063303208,-0.012544009265622675,0.06632601575862303,0.0,0.0,0.0,0.012383475717983759,0.0029540814020719694,0.026377032838935378,-0.06123933274932643,0.025547620595728588,-0.0,-0.014368021260041804,-0.0,0.08069403701866483,0.466701041983284,0.4744998528209846,0.0077988108377007315,0.0077988108377007315,-0.017188504631635335,9.724983215332031,0.0,3.160458359151444,1,-0.01449741032735199,-0.00046996907416652946,0.002446937286512692,9.843677520751953,1,0.03560829162597656,0.047089739081121205,0.02280307009410056,0.4744998528209846,1.5707963267948966,0.49237818427186103,1,-0.010726998870525849,0.0025063236311562904,-0.0012987733869400731,0.03999801899999511
56.80088770700013,3.0858654990135927,0.0,0.0,-0.004879800089470509,-0.14506337783422946,-0.0,0.011573357860012134,-0.0259308572164143,0.0,0.11346745491027832,0.12200053353000777,-0.11734969813501096,-0.08913383920978767,0.12200053353000777,0.0,0.0,0.0,-0.02021102763460893,0.0028785744329604714,-0.12777432983355258,-0.049502174584333064,0.02355301596342177,0.0,-0.005853809770061347,-0.0,0.12785434330006912,0.4550073359949218,0.4727027740898891,0.01769543809496721,0.01769543809496721,-0.001648026488930841,9.728249549865723,0.0,3.160458359151444,1,-0.014918572027570232,-0.0010637712010562416,0.0019157123961519073,9.843677520751953,1,0.03462839126586914,0.04802124777978007,0.021061466247860202,0.4727027740898891,1.5707963267948966,0.49237818427186103,1,-0.011805246109183164,0.0021974974009667785,-0.0013198818791955995,0.04007214800003567
56.901290374000155,3.0836103554121377,0.0,0.0,0.0010526373044041797,-0.16287244123394293,-0.0,0.008038301846430465,-0.02366821088605431,0.0,0.11493533849716187,0.02683420657181587,-0.134349819646973,-0.09506704098096642,0.02683420657181587,0.0,0.0,0.0,-0.038123938153378945,0.001707591888267307,-0.12647704907428786,-0.044229190216145575,0.020563723326709634,0.0,-0.008003695731176774,-0.0,0.03483790230299264,0.43580871422298406,0.4715066041655624,0.035697889942578165,0.035697889942578165,0.031450312781369213,9.73251724243164,0.0,3.160458359151444,1,-0.015369600747861246,-0.0019793003147479393,0.0010724755700229386,9.843677520751953,1,0.03334808349609375,0.04937603905166756,0.01887172306410593,0.4715066041655624,1.5707963267948966,0.49237818427186103,1,-0.012522948063779182,0.0017033199899733542,-0.0012462474507389638,0.040007073999959175
57.002719151000065,3.081890623762868,0.0,0.0,-0.0026014664089768318,0.08257089522302635,-0.0,0.02090878310485076,-0.057055202181441035,0.0,0.10376887023448944,-0.01170757613245305,0.09945707344080416,-0.013473654904575673,-0.01170757613245305,0.0,0.0,0.0,-0.03371669721745047,-3.1640638191295046e-06,0.11614890292663982,-0.07551602752000591,0.018443175946182017,-0.0,-0.0026020179196941965,-0.0,-0.009105558212758854,0.42376594238422305,0.46999726534322034,0.046231322958997456,0.046231322958997456,0.046664358251206475,9.735419273376465,0.0,3.160458359151444,1,-0.015713547077715172,-0.0026049838765032037,0.0003912930827640598,9.843677520751953,1,0.03247747421264648,0.05,0.016954699489019304,0.46999726534322034,1.5707963267948966,0.49237818427186103,1,-0.013428551357184414,0.001350209787184526,-0.0013383423796974935,0.04001385200012919
57.101292650999994,3.0775380419039102,0.0,0.0,0.02150042279995182,-0.14254054353917156,-0.0,0.012913827311780401,-0.04695298352560518,0.0,0.07321682572364807,0.05450923410919413,-0.10602407295876685,-0.10621339448314558,0.05450923410919413,0.0,0.0,0.0,-0.09375002313403538,-0.0038513182095781277,-0.044993390619411065,-0.06179895753485786,0.014936193120564482,0.0,0.01269520730655932,-0.0,0.04181402680263481,0.4082325120414736,0.4680829897789714,0.059850477737497965,0.059850477737497965,0.06512760442223427,9.7421236038208,0.0,3.160458359151444,1,-0.016584063449506737,-0.0035811569054810784,-0.0009480037241673506,9.843677520751953,1,0.030466175079345702,0.05,0.013909329488567906,0.4680829897789714,1.5707963267948966,0.49237818427186103,1,-0.014577116695733782,0.0007817374341061003,-0.0013812286697091243,0.04003020300001481
57.200873798999964,3.0753054441410748,0.0,0.0,0.015628133807901096,-0.11836715853528296,-0.0,0.021018718424358953,-0.07031967231038819,0.0,0.07198279350996017,0.06390828805971417,-0.07402075285167267,-0.11608862425245972,0.06390828805971417,0.0,0.0,0.0,-0.08425301231009047,-0.006847882675376865,-0.027409919694620408,-0.08233770031111427,0.01212484124252368,-0.0,0.011764161684732382,-0.0,0.05214412637498179,0.3998549316319009,0.4671155171232499,0.06726058549134883,0.06726058549134883,0.08020797477800971,9.74797534942627,0.0,3.160458359151444,1,-0.01703058300207383,-0.004257864786298779,-0.0013802421810401382,9.843677520751953,1,0.028710651397705077,0.05,0.012879078253475736,0.4671155171232499,1.5707963267948966,0.49237818427186103,1,-0.015157600289166684,0.0003814352428689517,-0.0016313439434861652,0.040008536999948774
57.301306188000126,3.069998070026535,0.0,0.0,0.018276283163057353,-0.11815439361352556,-0.0,0.023031069088286484,-0.08338775068649425,0.0,0.07345294207334518,-0.024652591136430764,-0.06805413770508029,-0.12760333865518886,-0.024652591136430764,0.0,0.0,0.0,-0.0958332957907317,-0.011922997721977429,-0.010570878757757037,-0.09029984727485511,0.007049204928693424,0.0,0.00849234198896405,-0.0,-0.033144933125394814,0.39287361462392356,0.4662687240471353,0.07339510942321192,0.07339510942321192,0.08871574631666583,9.756121635437012,0.0,3.160458359151444,1,-0.018092057824981824,-0.005324170601086814,-0.001868077406661145,9.843677520751953,1,0.026266765594482423,0.05,0.011340079793802842,0.4662687240471353,1.5707963267948966,0.49237818427186103,1,-0.015665676134835427,-0.00023905958308919435,-0.002109580318723035,0.03994751899995208
57.40087565099998,3.067494035057148,0.0,0.0,0.020105414841904173,-0.11727804826388219,-0.0,0.020705925439078118,-0.0831289577500862,0.0,0.050970084965229034,0.02840441621035357,-0.06741514052699826,-0.12696362884277598,0.02840441621035357,0.0,0.0,0.0,-0.10317092419723128,-0.015647496107407188,0.001400604744263183,-0.08661530642794642,0.0036220624611244864,0.0,0.019774872298297965,-0.0,0.008629543912055603,0.3925245487735247,0.46605247015632717,0.0735279213828024,0.0735279213828024,0.0843413567785634,9.762059211730957,0.0,3.160458359151444,1,-0.018592864818859224,-0.006062959098157154,-0.0021346358761845687,9.843677520751953,1,0.024485492706298826,0.05,0.009442712756093487,0.46605247015632717,1.5707963267948966,0.49237818427186103,1,-0.015795428469320315,-0.0006589742348489064,-0.002210265687637388,0.04003755500002626
57.503278744,3.065152102909325,0.0,0.0,0.008529924947865877,-0.08150401189506756,-0.0,0.02081964201389329,-0.09028345480757625,0.0,0.04502430930733681,0.026802126194850957,-0.03232591428947097,-0.1172563065780803,0.026802126194850957,0.0,0.0,0.0,-0.08026022593390182,-0.020530216353019257,0.01914501571518045,-0.08899925605836967,-0.0012262603572907723,-0.0,0.020897977457692812,-0.0,0.005904148737158145,0.397411470679109,0.4653323598027906,0.06792088912368177,0.06792088912368177,0.07159347745934233,9.77047061920166,0.0,3.160458359151444,1,-0.019061251248423797,-0.007198388784250271,-0.0016923558985063405,9.843677520751953,1,0.02196207046508789,0.05,0.007892201271736933,0.4653323598027906,1.5707963267948966,0.49237818427186103,1,-0.016227494681442266,-0.0013026822984233315,-0.002104388305500052,0.04017750000002707
57.60089402100016,3.0638609720425376,0.0,0.0,0.002082469298367899,-0.04146501641434612,-0.0,0.015805460110298014,-0.08342055141340243,0.0,0.028388699516654015,0.0477408661273936,0.00031002044593376327,-0.09315707096984756,0.0477408661273936,0.0,0.0,0.0,-0.06713799395284566,-0.023224362872926552,0.048815805194398376,-0.07929719270516547,-0.004112615927893261,-0.0,0.028980430160733504,-0.0,0.018760435966660095,0.40421825476188644,0.4646207367792862,0.06040248201739962,0.06040248201739962,0.05948211067826242,9.775177001953125,0.0,3.160458359151444,1,-0.019319477421781264,-0.007969306395118897,-0.0011460168632981445,9.843677520751953,1,0.020550155639648435,0.05,0.006139260811561428,0.4646207367792862,1.5707963267948966,0.49237818427186103,1,-0.01665446849554488,-0.0017445607173099847,-0.0018396891791950577,0.040091278000090824
57.701285392000045,3.0644768709479484,0.0,0.0,-0.005876550983319607,-0.09733083854332561,-0.0,0.002100632273942799,-0.057144448423433025,0.0,0.022114356979727745,0.03830858565624939,-0.06144680033448842,-0.09467349600505323,0.03830858565624939,0.0,0.0,0.0,-0.04952034801822227,-0.026153590083090286,-0.021658340379769533,-0.049571360779837204,-0.007577115891539887,0.0,0.03054246711733777,-0.0,0.007766118538911618,0.417308224151844,0.4642051408788685,0.04689691672702434,0.04689691672702434,0.03399574471642517,9.78156852722168,0.0,3.160458359151444,1,-0.019196297640699102,-0.009124880935575333,-6.462150623711063e-05,9.843677520751953,1,0.01863269805908203,0.05,0.004385770782875334,0.4642051408788685,1.5707963267948966,0.49237818427186103,1,-0.01690382603579552,-0.0024189459005087067,-0.001109032507860795,0.040028500000062195
57.80093761400008,3.0654817130391434,0.0,0.0,-0.015199894068834867,-0.020439135987253935,-0.0,-0.011346353142931842,-0.02726876077935109,0.0,0.01264969352632761,0.03413053866197698,-0.006063588029543744,-0.03353470582180361,0.03413053866197698,0.0,0.0,0.0,-0.02851950813371768,-0.027430015005225246,0.03546839057767698,-0.018695086301032508,-0.00851741468557326,0.0,0.034668247795718275,-0.0,-0.0005377091337412946,0.4276056667386108,0.46432666087336993,0.036720994134759266,0.036720994134759266,0.021781104860532446,9.78577995300293,0.0,3.160458359151444,1,-0.0189953292224601,-0.009887258851968792,0.0007192812175405368,9.843677520751953,1,0.01736927032470703,0.05,0.003060836194484366,0.46432666087336993,1.5707963267948966,0.49237818427186103,1,-0.016830914039094657,-0.0028688883637363895,-0.00014431724057011673,0.04011450000007244
57.90129189200002,3.068668462290616,0.0,0.0,-0.027303037553435213,-0.006113901628487353,-0.0,-0.026452395457598706,0.00980287582974406,0.0,-0.0011970503255724907,0.05188790743800266,-0.00986401861048479,0.006014757227703401,0.05188790743800266,0.0,0.0,0.0,7.832949585953806e-05,-0.02797270180604897,0.0215524469528295,0.018117473538301822,-0.008079241313615693,0.0,0.041105898570905956,-0.0,0.010782008867096706,0.4434881629317591,0.4655730611457996,0.02208489821404047,0.02208489821404047,0.01339836897852776,9.79029655456543,0.0,3.160458359151444,1,-0.018357979372165545,-0.011002093822517186,0.002092639957547306,9.843677520751953,1,0.016014289855957032,0.05,0.0012984907699804058,0.4655730611457996,1.5707963267948966,0.49237818427186103,1,-0.016083073875636855,-0.003523582296529758,0.001389475959250555,0.04001479599992308
58.00309948400013,3.0717448378334002,0.0,0.0,-0.03464524515613658,0.005157410691066541,-0.0,-0.04287766605654275,0.0505682150934204,0.0,0.007953915745019913,0.029679796999179393,-0.018147791574183884,0.047480532049996436,0.029679796999179393,0.0,0.0,0.0,0.018071421211549272,-0.027453163084997897,0.013940634672074221,0.057453135958419874,-0.00640131713790746,0.0,0.03505675880526029,-0.0,-0.005376961806080897,0.4541346713689247,0.46671921024005886,0.01258453887113431,0.01258453887113431,0.00030150778775975794,9.793302536010742,0.0,3.160458359151444,1,-0.017742704263608734,-0.011718525724603007,0.0030302672009611914,9.843677520751953,1,0.01511249542236328,0.05,0.0012693516647571273,0.46671921024005886,1.5707963267948966,0.49237818427186103,1,-0.015395384419081302,-0.003939387781841084,0.0025721679436613927,0.039990795999983675
58.10130918799996,3.07828088997947,0.0,0.0,-0.04933706342373751,0.08722836366321816,-0.0,-0.04148541299455681,0.05345432476330922,0.0,0.01160633284598589,0.018768451326095427,0.053725651558017506,0.08706151059986533,0.018768451326095427,0.0,0.0,0.0,0.054177976616623234,-0.02537987725387184,0.05787117318667942,0.057224718412574725,-0.003105487318353634,-0.0,0.03240836019584101,-0.0,-0.013639908869745579,0.46966810171167417,0.46811347452705243,-0.0015546271846216264,-0.0015546271846216264,-0.014321943513978763,9.796422958374023,0.0,3.160458359151444,1,-0.016435493834394778,-0.012731662492112068,0.00445644591032535,9.843677520751953,1,0.014176368713378906,0.05,0.001443897792341993,0.46811347452705243,1.5707963267948966,0.49237818427186103,1,-0.014558825846885158,-0.004533019257938954,0.0036176677523467172,0.0400429249998524
58.200906798999995,3.0847803107118783,0.0,0.0,-0.04433919997174782,0.04535168606900228,-0.0,-0.05474881861348156,0.0887192608539197,0.0,0.0031520393677055836,0.030420647944869865,0.0002923389837319046,0.0996383320498982,0.030420647944869865,0.0,0.0,0.0,0.04557230999670045,-0.023774448497632404,0.022582140094004676,0.08940197735267529,0.00010421760098907316,-0.0,0.03668508448977291,-0.0,-0.006264436544903045,0.48031461014883936,0.46961911909744136,-0.010695491051397887,-0.010695491051397887,-0.026771436607979666,9.798851013183594,0.0,3.160458359151444,1,-0.015135609687913122,-0.013349551045209882,0.004860647123511754,9.843677520751953,1,0.013447952270507811,0.05,0.0008458945801526257,0.46961911909744136,1.5707963267948966,0.49237818427186103,1,-0.013655439104651801,-0.004903223283789783,0.004447106207994244,0.04000386999996408
58.30132048400014,3.0946436568341333,0.0,0.0,-0.052401666198690966,-0.034118265167378245,-0.0,-0.053862519718634205,0.09245147328437547,0.0,0.006089271046221256,0.03451359017178996,-0.07237180589603225,0.06688536941536735,0.03451359017178996,0.0,0.0,0.0,0.06853394432295903,-0.019511801506147182,-0.08407788943670996,0.08900016598725302,0.004363362477589887,0.0,0.03456289816905198,-0.0,-4.930799726202235e-05,0.49462631001519286,0.4712406694238408,-0.023385640591352175,-0.023385640591352175,-0.04511446500700871,9.801243782043457,0.0,3.160458359151444,1,-0.013162940463462114,-0.014183165527000222,0.006096232665843655,9.843677520751953,1,0.012730121612548828,0.05,0.0009639797154257397,0.4712406694238408,1.5707963267948966,0.49237818427186103,1,-0.01268250890881214,-0.005426716538135652,0.004701326631610408,0.03931996300002538
58.40092709500004,3.100100407747943,0.0,0.0,-0.06372851982250627,0.18104790591254713,-0.0,-0.039395564090439636,0.06315827513098646,0.0,0.028210896998643875,-0.0686031637256505,0.13252341001820342,0.13858159239230528,-0.0686031637256505,0.0,0.0,0.0,0.09577583319404359,-0.0165590118512689,0.10133045224634024,0.05709200891254732,0.006876117725436045,-0.0,0.020949592842457225,-0.0,-0.08955275656810772,0.5035274892003638,0.47209216221229017,-0.03143532698807361,-0.03143532698807361,-0.06084045588263027,9.806147575378418,0.0,3.160458359151444,1,-0.012071590280700218,-0.014672717097571938,0.0065502571894220625,9.843677520751953,1,0.011258983612060547,0.05,0.0018679014573453735,0.47209216221229017,1.5707963267948966,0.49237818427186103,1,-0.012171613235742517,-0.005751358329440233,0.004478320616810077,0.039985888999808594
58.5037859470001,3.1093978472564894,0.0,0.0,-0.05352826152165492,0.08559560667297647,-0.0,-0.03600978572038052,0.05972882409726807,0.0,0.021827373653650284,-0.033426763686641325,0.0489129639574806,0.0922044590388745,-0.033426763686641325,0.0,0.0,0.0,0.0762362044797423,-0.012006700932495796,0.020949075543115595,0.05011074574215692,0.010237986556655703,-0.0,0.023386889530559177,-0.0,-0.0568136532172005,0.5138249317871306,0.4738106103061919,-0.04001432148093853,-0.04001432148093853,-0.06980789217366686,9.815359115600586,0.0,3.160458359151444,1,-0.010212102378990907,-0.015319997763280017,0.006656658838680688,9.843677520751953,1,0.008495521545410155,0.05,0.0023100013258387573,0.4738106103061919,1.5707963267948966,0.49237818427186103,1,-0.011140544379401462,-0.00620984780321568,0.004118218163217038,0.040188296000224
58.60095937300002,3.115178311900184,0.0,0.0,-0.046655833603900736,-0.0680390772355115,-0.0,-0.03988552472757373,0.0696778691818848,0.0,0.007188796065747738,0.11752107981539833,-0.09235495680037997,0.030901188313521264,0.11752107981539833,0.0,0.0,0.0,0.06244324454987455,-0.009192194462087817,-0.12180080598227475,0.05820030836522173,0.012074923862555258,0.0,0.030970978534325247,-0.0,0.08655010128107309,0.518362787842316,0.47441479011175186,-0.043947997730564126,-0.043947997730564126,-0.07387142626270131,9.823256492614746,0.0,3.160458359151444,1,-0.009056009450251956,-0.015693687496504172,0.006477156320071093,9.843677520751953,1,0.006126308441162109,0.05,0.0026807851817943706,0.47441479011175186,1.5707963267948966,0.49237818427186103,1,-0.0107780364960655,-0.0064995093128132845,0.0038467067018603824,0.03999922200000583
58.701392095000074,3.120857751146793,0.0,0.0,-0.04615231461016916,0.052576008720499674,-0.0,-0.02949744185535247,0.05018906958012495,0.0,0.022716455161571503,-0.036110206224070504,0.023734883570744613,0.06870105312278611,-0.036110206224070504,0.0,0.0,0.0,0.06149300639395899,-0.005783897762946772,-0.003411901171380709,0.03581755757778375,0.014807730287587665,-0.0,0.019929165864585416,-0.0,-0.05603937208865592,0.5199335841691108,0.4759781296057017,-0.0439554545634091,-0.0439554545634091,-0.07282948988089687,9.832144737243652,0.0,3.160458359151444,1,-0.007920121600930141,-0.016191301064062306,0.005910474597531918,9.843677520751953,1,0.0034598350524902345,0.05,0.0024718965500569617,0.4759781296057017,1.5707963267948966,0.49237818427186103,1,-0.009840032799695609,-0.006905101663301248,0.0035284005975460943,0.04007425899999362
58.800930650000055,3.1251196005206783,0.0,0.0,-0.03543229918375115,0.008043128051494514,-0.0,-0.03903950544495438,0.07334117325671809,0.0,-0.01463924441486597,0.12262864022607098,-0.026505641932539868,0.06885543224226148,0.12262864022607098,0.0,0.0,0.0,0.0376354425044278,-0.00420432617638238,-0.025875676167002426,0.05715890642713044,0.0166248929091402,0.0,0.040480224854838154,-0.0,0.08214841537123282,0.5176646561415179,0.47669283598499523,-0.040971820156522565,-0.040971820156522565,-0.060175783269406605,9.836923599243164,0.0,3.160458359151444,1,-0.007067751726153127,-0.016482151554443995,0.005224623417040433,9.843677520751953,1,0.0020261764526367187,0.05,0.0008016205572275668,0.47669283598499523,1.5707963267948966,0.49237818427186103,1,-0.009411208972119478,-0.007159110234560135,0.0035121348649663335,0.03999314800012144
58.90128255800005,3.132649021163467,0.0,0.0,-0.031520506554463514,-0.030647037230329903,-0.0,-0.030052538467173942,0.0553957940573544,0.0,-0.02311694249510765,0.14916843537834512,-0.05268089997574263,0.03510922482749867,0.14916843537834512,0.0,0.0,0.0,0.030289854867385353,-0.0018990107035367272,-0.05932618533829083,0.03697749338689615,0.018720687318095206,0.0,0.043876030263492065,-0.0,0.10529240511485306,0.5096361415823445,0.47761771663189884,-0.03201842495044582,-0.03201842495044582,-0.04416250300413252,9.842473030090332,0.0,3.160458359151444,1,-0.0055618675975953385,-0.01684590934144872,0.004655386233392066,9.843677520751953,1,0.0003613471984863281,0.05,-0.0003515725877738698,0.47761771663189884,1.5707963267948966,0.49237818427186103,1,-0.008856280583977316,-0.007520905208186979,0.003132598864488597,0.03993198100010886
59.00347500199996,3.1369375153475905,0.0,0.0,-0.033950161939997996,0.05106609403132273,-0.0,-0.030181427183438615,0.056576738138563024,0.0,-0.0045640538446605206,-0.031108906298849034,0.01933184062256685,0.07372213504883796,-0.031108906298849034,0.0,0.0,0.0,0.03635772893057252,-0.0006650227694264346,0.015083003206034468,0.03678228075351248,0.020121102189240868,-0.0,0.03216707828035195,-0.0,-0.06327598457920099,0.501956692873569,0.47779730719083274,-0.024159385682736456,-0.024159385682736456,-0.03464509568926897,9.842843055725098,0.0,3.160458359151444,1,-0.0047041687607706885,-0.017041500936018413,0.0043217481797786115,9.843677520751953,1,0.0002503395080566406,0.05,-0.0012025962187972355,0.47779730719083274,1.5707963267948966,0.49237818427186103,1,-0.008748526248616972,-0.007754752658622741,0.0030410702481249506,0.04002329600007215
59.10126831699995,3.142013055394827,0.0,0.0,-0.028948859816758883,0.06284692816266282,-0.0,-0.019065450185787303,0.03222129516031195,0.0,-0.0016384125920012593,-0.03112279969390234,0.040987824142488596,0.05751475039809589,-0.03112279969390234,0.0,0.0,0.0,0.025671674065145478,0.0005721277229625516,0.03648743895239,0.01075842923376811,0.021638524981754986,-0.0,0.03005712283949469,-0.0,-0.06117992253339703,0.4881685917828138,0.4778796913861621,-0.010288900396651535,-0.010288900396651535,-0.013078597168291732,9.84317684173584,0.0,3.160458359151444,1,-0.0036890607513234033,-0.017285258682910854,0.0036944023743596807,9.843677520751953,1,0.00015020370483398438,0.05,-0.0016934115643440879,0.4778796913861621,1.5707963267948966,0.49237818427186103,1,-0.00869909573141936,-0.008102741764291694,0.002626582416181984,0.03998235099993508
59.20087407599999,3.14640460204954,0.0,0.0,-0.019889957022549892,-0.026526925889078738,-0.0,-0.014743602854043827,0.021491931458526264,0.0,-0.010833634063601494,0.04291659672481407,-0.03343982539677524,0.006881787004539789,0.04291659672481407,0.0,0.0,0.0,0.006303096788602104,0.0010251351099776766,-0.033924244206161774,-0.0002542532542733945,0.02183938621235679,-0.0,0.035900232224726714,-0.0,0.007016364500087355,0.4780456821212469,0.4779628884413683,-8.27936798786233e-05,-8.27936798786233e-05,0.001081370602723849,9.841737747192383,0.0,3.160458359151444,1,-0.002810751420380786,-0.01740566351980139,0.003191501912451423,9.843677520751953,1,0.0005819320678710937,0.05,-0.001581845756928069,0.4779628884413683,1.5707963267948966,0.49237818427186103,1,-0.008649177498295635,-0.0083334891319793,0.0021234941151977486,0.0400077220001549
59.301327334999996,3.153527710444785,0.0,0.0,-0.013537357790741727,-0.056886469214541824,-0.0,-0.005212191202743641,-0.003831691301844975,0.0,-0.007905134931206703,0.014638014669386298,-0.04875776914662692,-0.029553886136579163,0.014638014669386298,0.0,0.0,0.0,-0.006228253706588804,0.0013263118911375697,-0.05199314217581951,-0.024524918028943347,0.020715601446353763,-0.0,0.03474414477775395,-0.0,-0.02010613010836765,0.4614650542273009,0.47766453322046737,0.016199478993166316,0.016199478993166316,0.02996307429439983,9.838735580444336,0.0,3.160458359151444,1,-0.0013861297413317432,-0.017513617338080135,0.0025313648765843315,9.843677520751953,1,0.0014825820922851562,0.05,-0.001480809060568602,0.47766453322046737,1.5707963267948966,0.49237818427186103,1,-0.008828190630836197,-0.008684802979339008,0.001153112394275498,0.03997094500005005
59.400855742999966,3.156761780454533,0.0,0.0,-0.019440293026005043,0.07139374871271585,-0.0,0.011432926167144723,-0.045697895346751526,0.0,-0.005285818129777908,0.0334730969525845,0.0844050192119754,-0.007820340542657733,0.0334730969525845,0.0,0.0,0.0,0.007484956156719976,0.0012861255238228008,0.06258126010639467,-0.06456764367216462,0.018799340911014546,-0.0,0.03361558831426624,-0.0,-0.00014249136168174232,0.4494222823885399,0.47698299218692053,0.027560709798380767,0.027560709798380767,0.04365531937145368,9.837518692016602,0.0,3.160458359151444,1,-0.0007393157393821959,-0.01754868519999327,0.0022499607118795003,9.843677520751953,1,0.0018476486206054686,0.05,-0.001107486226606306,0.47698299218692053,1.5707963267948966,0.49237818427186103,1,-0.0092371152509643,-0.008928351013486428,0.00024946348970244033,0.040011537000054886
59.50317972400012,3.1580978554337964,0.0,0.0,-0.011304524635044019,0.07197014609278754,-0.0,0.029329304644704166,-0.09569874702748889,0.0,0.001551592955365777,-0.03522919934784473,0.10780325759906095,-0.052119188043166995,-0.03522919934784473,0.0,0.0,0.0,-0.011549638934335266,0.00038151122930334765,0.0828658920825215,-0.10981686641942039,0.014013134093165566,-0.0,0.029891036127598233,-0.0,-0.06512023547544296,0.43127085816779864,0.4756521824136346,0.04438132424583596,0.04438132424583596,0.08637505113956373,9.835578918457031,0.0,3.160458359151444,1,-0.00047210074352950216,-0.017579246255395933,0.0014969864846381127,9.843677520751953,1,0.0024295806884765624,0.05,-0.0010595941871137297,0.4756521824136346,1.5707963267948966,0.49237818427186103,1,-0.010035601114935854,-0.009317744352535655,-0.0012341073511972303,0.040160555000056775
59.600923372000125,3.157000585097992,0.0,0.0,-0.0005802531328830164,-0.13207943012444656,-0.0,0.0329304064445429,-0.11307718522187564,0.0,0.001642950577661395,0.04622448758129115,-0.06590679005127908,-0.16089661495767257,0.04622448758129115,0.0,0.0,0.0,-0.036578025718501196,-0.000452645295622931,-0.09539225339845198,-0.12265392576847182,0.009570687975178634,0.0,0.0305381009021225,-0.0,0.015686386679168652,0.42044981680543403,0.473980561227623,0.05353074442218908,0.05353074442218908,0.0933531386233088,9.834695816040039,0.0,3.160458359151444,1,-0.000691554810690409,-0.01760506522374788,0.0010899915749638216,9.843677520751953,1,0.002694511413574219,0.05,-0.00015472599904199063,0.473980561227623,1.5707963267948966,0.49237818427186103,1,-0.011038573826542818,-0.00960609406347549,-0.002176710105653253,0.04001772199990228
59.70159289100002,3.156432192838344,0.0,0.0,-0.0014883796682689451,-0.09049393321122033,-0.0,0.05233951414237808,-0.17239790098948835,0.0,0.0006102289189584553,0.07333277435720033,-0.0023508619555134974,-0.19469119564501203,0.07333277435720033,0.0,0.0,0.0,-0.03638277116100036,-0.0026576445737118144,-0.05232140392972445,-0.17334007360140585,0.0009174925098474024,0.0,0.03159970669071386,-0.0,0.04173306766648647,0.40840704496667346,0.4713047136288551,0.0628976686621816,0.0628976686621816,0.1113682837796482,9.833998680114746,0.0,3.160458359151444,1,-0.0008052332626199643,-0.017651720822599224,0.00043095116195007965,9.843677520751953,1,0.002903652191162109,0.05,0.00037275454565278065,0.4713047136288551,1.5707963267948966,0.49237818427186103,1,-0.012644082385803545,-0.01009034543187066,-0.0037170005860412752,0.04015522199983934
59.800898408999956,3.1554839920866105,0.0,0.0,0.0026404315421938926,-0.018984592361351135,-0.0,0.06327143019610987,-0.20926596968391944,0.0,-0.001630597747862339,0.03976556117252614,0.07772448577832126,-0.19522183567770615,0.03976556117252614,0.0,0.0,0.0,-0.046889496281973746,-0.0044356068345634565,0.031071838852840594,-0.2030082333125446,-0.006204792391805131,-0.0,0.03293904937109029,-0.0,0.006826511801435846,0.4036946559862882,0.4693691440894085,0.06567448810312015,0.06567448810312015,0.11387455971058433,9.833009719848633,0.0,3.160458359151444,1,-0.0009948734129666904,-0.0176899136050257,1.1811159289127157e-05,9.843677520751953,1,0.0032003402709960935,0.05,6.747759962537316e-05,0.4693691440894085,1.5707963267948966,0.49237818427186103,1,-0.01380542410947152,-0.01045235311801073,-0.004747262263928158,0.03987001799987411
59.90131401999997,3.1562172095729917,0.0,0.0,0.005641735939058704,-0.030314401807237296,-0.0,0.05609594706443927,-0.21087664392465066,0.0,0.019662747159600258,-0.01772805504698449,0.06776239802612224,-0.20198064096245444,-0.01772805504698449,0.0,0.0,0.0,-0.05371161246785724,-0.0067876642541613436,0.029187872785931573,-0.19360502397633125,-0.017171348484229715,-0.0,0.020979468207206798,0.0,-0.03870752325419129,0.4009021291830974,0.4664659621545229,0.06556383297142565,0.06556383297142565,0.11273233461180399,9.83423900604248,0.0,3.160458359151444,1,-0.000848229915690446,-0.017742865601076664,-0.0001815378477456542,9.843677520751953,1,0.002831554412841797,0.05,0.0017969730921031212,0.4664659621545229,1.5707963267948966,0.49237818427186103,1,-0.015547333270402874,-0.0110511947931302,-0.005307808497632775,0.040032500000052096
60.00339005700016,3.155818085901239,0.0,0.0,-0.0025604862651059206,-0.02533030175404092,-0.0,0.0579934149548153,-0.22599664290149746,0.0,0.037543803453445435,-0.058793928235768865,0.07862233347458444,-0.21338846142354786,-0.058793928235768865,0.0,0.0,0.0,-0.03559616373532387,-0.008233515248397057,0.017433651612241283,-0.20148569705322023,-0.02455799904919581,0.0,0.010845200494410836,0.0,-0.0696391287301797,0.4021238596594938,0.4646300190556461,0.06250615939615223,0.06250615939615223,0.10580334992503908,9.835532188415527,0.0,3.160458359151444,1,-0.000928054650040977,-0.017779452189406925,-3.305385080523147e-05,9.843677520751953,1,0.002443599700927734,0.05,0.0031755379098690898,0.4646300190556461,1.5707963267948966,0.49237818427186103,1,-0.016648899129728955,-0.011488015482177068,-0.00545407818474241,0.0399882039998829
60.101310483000134,3.154970097473347,0.0,0.0,0.0029300938851591005,-0.010100672427614895,-0.0,0.04388139780747512,-0.20637348562180424,0.0,0.04247552156448364,-0.030897935952503664,0.08310946653014252,-0.1891688550588023,-0.030897935952503664,0.0,0.0,0.0,-0.04947656603822566,-0.011676911311770857,0.05044247359940649,-0.17244327033824416,-0.0338894616119196,-0.0,0.008575875940708546,0.0,-0.03947381189321221,0.40875611081707186,0.4628585160275682,0.054102405210496585,0.054102405210496585,0.08924968599800064,9.83618450164795,0.0,3.160458359151444,1,-0.0010976523356194257,-0.01784186425070281,-0.0006197377277121416,9.843677520751953,1,0.002247905731201172,0.05,0.004520742401130046,0.4628585160275682,1.5707963267948966,0.49237818427186103,1,-0.017711800946575682,-0.012184182160245543,-0.004605923784905549,0.040020129999902565
60.20087846399997,3.1540064152298752,0.0,0.0,0.01957284115605846,-0.16104068260464263,-0.0,0.02552824759232838,-0.17133983544977405,0.0,0.03395121172070503,0.02604578724432851,-0.06774792186906431,-0.2251702905539451,0.02604578724432851,0.0,0.0,0.0,-0.08796490308056167,-0.014466485960614226,-0.058815916930492346,-0.13210191077288155,-0.03907950384023712,0.0,0.013665423510062039,0.0,0.01238036373426647,0.41626102660064745,0.46216346177121764,0.04590243517057013,0.04590243517057013,0.06419647900386835,9.837764739990234,0.0,3.160458359151444,1,-0.0012903887843137341,-0.01789127645607169,-0.0012295404583568753,9.843677520751953,1,0.001773834228515625,0.05,0.0049530833422928,0.46216346177121764,1.5707963267948966,0.49237818427186103,1,-0.01812883350038603,-0.012665259198863108,-0.0037239827870049922,0.040041426000016145
60.30129837200002,3.15146682812428,0.0,0.0,0.017027527597136154,-0.21701468311023303,-0.0,0.013589822139373611,-0.15254075565522565,0.0,0.04127353057265282,0.060140554029578505,-0.12655154581719677,-0.23312820737220985,0.060140554029578505,0.0,0.0,0.0,-0.08395666959053995,-0.018290701987955134,-0.11482591385118224,-0.10668945111978291,-0.04577787806956556,0.0,0.009664769070253846,0.0,0.05047578495932466,0.43161992401819793,0.46079296745900805,0.029173043440810176,0.029173043440810176,0.035885749572635496,9.840434074401855,0.0,3.160458359151444,1,-0.0017983062054327981,-0.01799076938207378,-0.0013455193565117887,9.843677520751953,1,0.0009730339050292968,0.05,0.006408445118046592,0.46079296745900805,1.5707963267948966,0.49237818427186103,1,-0.018951130087711786,-0.013413510599383907,-0.0025407422279774706,0.039902296000036586
60.40092316799996,3.150765471858967,0.0,0.0,0.001029757269312731,0.03469724018651898,-0.0,0.008910890116700586,-0.14533364097011234,0.0,0.064115971326828,-0.04834122936177259,0.09563583680651738,-0.11480223165299391,-0.04834122936177259,0.0,0.0,0.0,-0.048681885861010646,-0.020637730843821523,0.10399165540828897,-0.09625274197811996,-0.049077986666731854,-0.0,-0.003890658998439959,0.0,-0.04445057036333263,0.44418629463255677,0.46021507492464975,0.016028780292093092,0.016028780292093092,0.01242392978864915,9.844040870666504,0.0,3.160458359151444,1,-0.0019385774584954165,-0.018067287350898704,-0.0010925078581161666,9.843677520751953,1,-0.00010900497436523437,0.04999854695762378,0.007741997679502865,0.46021507492464975,1.5707963267948966,0.49237818427186103,1,-0.01929786560832677,-0.013925553829893448,-0.0016169367987700896,0.040025555000056556
60.50387707499999,3.1483990223917098,0.0,0.0,0.0011508594295091927,0.03495531550192638,-0.0,-0.015629075325995934,-0.09302179411406011,0.0,0.06403253972530365,-0.07445386468100988,0.07260318569145802,-0.06785061303694663,-0.07445386468100988,0.0,0.0,0.0,-0.04949518449667693,-0.02372187709215923,0.1080947922631062,-0.04089049749003248,-0.05213700964470433,0.0,-0.004739390766442908,0.0,-0.06971447391456698,0.46495571273128933,0.4597720970489917,-0.005183615682297749,-0.005183615682297749,-0.016353731888895197,9.850873947143555,0.0,3.160458359151444,1,-0.0024118673519468283,-0.0182028602578311,-0.0007322240955660283,9.843677520751953,1,-0.0021589279174804685,0.04993388255322071,0.00835860047882523,0.4597720970489917,1.5707963267948966,0.49237818427186103,1,-0.019563652333721603,-0.014706646059517887,5.4633299046974775e-05,0.040156130000013945
60.600928390000036,3.14865957597515,0.0,0.0,0.00029094693026715523,-0.1260615204388384,-0.0,-0.037340110713119906,-0.043272280171502475,0.0,0.07169749587774277,-0.03709472268498547,-0.09374837845487932,-0.09473773642890881,-0.03709472268498547,0.0,0.0,0.0,-0.04666394356419619,-0.025210971392887322,-0.054629423714220096,0.009148720745862393,-0.05242445127149991,0.0,-0.00955582774784224,0.0,-0.027538894937143225,0.47856928089684514,0.4599864353800615,-0.018582845516783575,-0.018582845516783575,-0.030550339040892223,9.85541820526123,0.0,3.160458359151444,1,-0.0023597566352587585,-0.01829803384351125,-0.0002621460292338293,9.843677520751953,1,-0.003522205352783203,0.049848500159629494,0.009444821491159409,0.4599864353800615,1.5707963267948966,0.49237818427186103,1,-0.019435049335079713,-0.01522589493221052,0.0014793429841077795,0.040033499999935884
60.70131070499997,3.1517113376163697,0.0,0.0,-0.019607180880641166,-0.010182069015722363,-0.0,-0.045966978461872185,-0.020605919854633236,0.0,0.05443093180656433,0.05629418523947727,3.635468495618091e-05,-0.02298428029835573,0.05629418523947727,0.0,0.0,0.0,0.0009795660776451894,-0.026068545136787635,0.01423649232981302,0.03087884967200011,-0.05119880334360083,-0.0,-0.0008042857685898464,0.0,0.057098471008067114,0.49829150144438117,0.4605248778779826,-0.03776662356639848,-0.03776662356639848,-0.05527687567065901,9.863283157348633,0.0,3.160458359151444,1,-0.0017494043070148458,-0.01841688759806488,0.0010043683324591015,9.843677520751953,1,-0.005881690979003906,0.04964498678345658,0.00932715972112858,0.4605248778779826,1.5707963267948966,0.49237818427186103,1,-0.019111983836327073,-0.015996326306856396,0.003177172441311334,0.04003174099989337
60.80090546400015,3.1540504114845933,0.0,0.0,-0.01819115447875038,-0.07159972672393868,-0.0,-0.06807717561136824,0.03314483244794763,0.0,0.05858028307557106,-0.013898637252922084,-0.07886886246515729,-0.002191647416288224,-0.013898637252922084,0.0,0.0,0.0,0.00032219476213576627,-0.025863790560335113,-0.04752751195476341,0.08238219019294292,-0.04884471899276922,0.0,-0.00443906493266529,0.0,-0.009459572320256794,0.5099852074327433,0.4613261542410457,-0.0486590531916975,-0.0486590531916975,-0.06251127299876241,9.867827415466309,0.0,3.160458359151444,1,-0.00128158953337012,-0.01847274155337046,0.001709628772597366,9.843677520751953,1,-0.00724496841430664,0.049458786646105195,0.008968023289330359,0.4613261542410457,1.5707963267948966,0.49237818427186103,1,-0.01863121801848918,-0.01649683174661409,0.004497324241436355,0.04000607400007539
60.901338444999965,3.1602827741072934,0.0,0.0,-0.04044446667682649,0.09488523681675819,-0.0,-0.07894436880809919,0.06604422502042533,0.0,0.06450390815734863,0.011329562784097203,0.05540649467773816,0.10146510814978041,0.011329562784097203,0.0,0.0,0.0,0.055199775948462426,-0.024022145176970502,0.06173556309468895,0.11049805087327248,-0.04344351661098376,0.0,-0.009224623309335272,0.0,0.020554186093432476,0.5242969072990968,0.4629141619767463,-0.06138274532235055,-0.06138274532235055,-0.07687212505735735,9.876290321350098,0.0,3.160458359151444,1,-3.511700883009894e-05,-0.018500704275049323,0.003182161856354034,9.843677520751953,1,-0.00978384017944336,0.04910402543055325,0.009809350724013292,0.4629141619767463,1.5707963267948966,0.49237818427186103,1,-0.017678413377068845,-0.01721794842713389,0.006178379756681946,0.040031258999988495
61.00346781600001,3.1655039223921864,0.0,0.0,-0.035960552296747536,0.10834869551609103,-0.0,-0.08805563086068517,0.09370346810869275,0.0,0.07197307795286179,-0.05201101948612298,0.05495835591056897,0.1322851422921056,-0.05201101948612298,0.0,0.0,0.0,0.04857535751655063,-0.022545587482073005,0.07986945951462333,0.13331279698283027,-0.03860900500905262,-0.0,-0.014697307652278117,0.0,-0.03731371183384487,0.5307546255314755,0.46399686921863875,-0.06675775631283676,-0.06675775631283676,-0.08361725240477788,9.881508827209473,0.0,3.160458359151444,1,0.0010091126481484914,-0.018471900579221528,0.003581943596393967,9.843677520751953,1,-0.011349391937255858,0.04881218533517441,0.01001477180114637,0.46399686921863875,1.5707963267948966,0.49237818427186103,1,-0.017028789031933365,-0.017676652959704324,0.007246537032238999,0.03997603700008767
61.10146266700008,3.1730735235159306,0.0,0.0,-0.0342373164120081,-0.09471420895657642,-0.0,-0.09865445705217883,0.12806070800578756,0.0,0.05237045884132385,0.06320383951103137,-0.14214790355312595,0.07186306303425152,0.06320383951103137,0.0,0.0,0.0,0.05018829708792723,-0.019011522456642595,-0.12895826262319707,0.15989937553573064,-0.03077419050584698,0.0,-0.0048931885698698455,0.0,0.0680970280809012,0.5347688828110626,0.46590312901336545,-0.06886575379769733,-0.06886575379769733,-0.07642821842416345,9.888426780700684,0.0,3.160458359151444,1,0.002523032872897346,-0.018351855654203622,0.004404368681992373,9.843677520751953,1,-0.01342477798461914,0.048302456527427345,0.009337466015399242,0.46590312901336545,1.5707963267948966,0.49237818427186103,1,-0.015885033155097348,-0.018327764573631795,0.008239875010973311,0.04002042599995548
61.20086990799996,3.1780304012254548,0.0,0.0,-0.045598603575403705,0.11673833209473013,-0.0,-0.0927441785642403,0.12273619772678225,0.0,0.06355258077383041,-0.04737769563672825,0.048892055001896036,0.16217761673664732,-0.04737769563672825,0.0,0.0,0.0,0.07839403365212023,-0.01649751993715501,0.05213527326482864,0.14909687139013733,-0.025029973670476928,-0.0,-0.012525471920751671,0.0,-0.03485222371597658,0.5333726194094672,0.46755049749105665,-0.06582212191841075,-0.06582212191841075,-0.0668146244650607,9.891576766967773,0.0,3.160458359151444,1,0.0035144084148021728,-0.01822083380541783,0.004741473475266604,9.843677520751953,1,-0.014369773864746093,0.04792465566532506,0.009121912438665322,0.46755049749105665,1.5707963267948966,0.49237818427186103,1,-0.014896612068482628,-0.01873122648229471,0.008654965163872182,0.04001740800003972
61.30130820399995,3.1856085096686364,0.0,0.0,-0.03961232589481639,0.13941803716456824,-0.0,-0.09203427698410621,0.13234970680951474,0.0,0.057250168174505234,-0.06598473634880345,0.06435573903185723,0.18114130625853653,-0.06598473634880345,0.0,0.0,0.0,0.06898930397704639,-0.012881962630294654,0.08065176641256191,0.14996924288593214,-0.016475110525593056,-0.0,-0.01018136314074694,-0.0,-0.05580337320805651,0.5260422365510911,0.4700308855520101,-0.056011350999081166,-0.056011350999081166,-0.046047500839548325,9.89533805847168,0.0,3.160458359151444,1,0.005030030103438499,-0.017946148682889695,0.004662567219655885,9.843677520751953,1,-0.015498161315917969,0.04731677755222297,0.008462613370288662,0.4700308855520101,1.5707963267948966,0.49237818427186103,1,-0.01340837923191055,-0.01928792291240796,0.008829862835636,0.03996561100007057
61.40086135199999,3.189882995415059,0.0,0.0,-0.027893135508050986,-0.025892003104651506,-0.0,-0.09670635254670856,0.14989880462331306,0.0,0.04198485240340233,0.09230828533021197,-0.09112871973944331,0.12180149379592789,0.09230828533021197,0.0,0.0,0.0,0.044665468096329666,-0.010897169841686576,-0.06259210752156777,0.1614023162360624,-0.010657887055374715,-0.0,-0.001818424100672354,-0.0,0.09412670943088433,0.5178391890667173,0.471289330192603,-0.046549858874114225,-0.046549858874114225,-0.029821015947185937,9.898029327392578,0.0,3.160458359151444,1,0.005884927252723049,-0.01771864695905239,0.004243069696610023,9.843677520751953,1,-0.0163055419921875,0.04688699785570215,0.008372689705433754,0.471289330192603,1.5707963267948966,0.49237818427186103,1,-0.012653312447554821,-0.019631044006825197,0.00894269310588163,0.040012018999959764
61.50385740800016,3.1926363940345404,0.0,0.0,-0.017156975714334673,-0.06119031945071399,-0.0,-0.08451676239810466,0.1314146282969421,0.0,0.0417291522026062,0.10693016563476618,-0.11436057546645545,0.08908264984768374,0.10693016563476618,0.0,0.0,0.0,0.02118281076019919,-0.00870466469306883,-0.07590582744844333,0.13494929040445652,-0.0030804757045065855,-0.0,-0.0025017924964799085,-0.0,0.10943195813124608,0.5017821599483696,0.473241304710612,-0.028540855237757512,-0.028540855237757512,-0.005128118537460456,9.900697708129883,0.0,3.160458359151444,1,0.006435606976619291,-0.01734172887756864,0.003377696532159764,9.843677520751953,1,-0.017106056213378906,0.046216296871114226,0.008449257384071032,0.473241304710612,1.5707963267948966,0.49237818427186103,1,-0.011482127736749425,-0.020106628616604755,0.008412580502729763,0.040161240999850634
61.60086679699998,3.1964385361534142,0.0,0.0,-0.026574048706576196,0.06982210402080397,-0.0,-0.06523910787293581,0.09050164595388639,0.0,0.07187139987945557,-0.10875444780510009,0.020786767527399858,0.11239921897422778,-0.10875444780510009,0.0,0.0,0.0,0.043702101371593444,-0.007347513585799645,0.032135990179396286,0.09078676553405575,0.0002572550691724907,0.0,-0.02129186173454868,-0.0,-0.0874625860705514,0.4900884539600079,0.4742495055066052,-0.0158389484534025,-0.0158389484534025,0.0024060455515811617,9.904376983642578,0.0,3.160458359151444,1,0.007196035400394063,-0.017060888348290334,0.003155395773862548,9.843677520751953,1,-0.018209838867187498,0.0457400271650313,0.008854775357363965,0.4742495055066052,1.5707963267948966,0.49237818427186103,1,-0.010877207259153487,-0.02040046572570712,0.007305276718313763,0.040091999999958716
61.701280834000045,3.199115786104051,0.0,0.0,-0.020114433517371057,0.016495070277791374,-0.0,-0.03842779007573031,0.029546521003519368,0.0,0.04775775596499443,0.009682170422137957,0.0011793047228581717,0.03381853762733291,0.009682170422137957,0.0,0.0,0.0,0.030333738332865248,-0.006020023438393963,-0.00828023936624124,0.02676173253837503,0.003026403111308519,-0.0,-0.009083918494201194,-0.0,0.01876608891633915,0.47333329314086203,0.4743163943412758,0.000983101200414005,0.000983101200414005,0.017501833252176136,9.911076545715332,0.0,3.160458359151444,1,0.007731485390521442,-0.016606873079049452,0.002549017049732066,9.843677520751953,1,-0.02021970748901367,0.04495665663905032,0.007880942657955794,0.4743163943412758,1.5707963267948966,0.49237818427186103,1,-0.010837073958351129,-0.02083255356293688,0.005406261326637262,0.03999777800004267
61.80093422300001,3.200676745115851,0.0,0.0,-0.003369032693723968,-0.11218018653286581,-0.0,-0.03754083264565442,0.02562485734971893,0.0,0.034021876752376556,0.09020996804719125,-0.11150410466131455,-0.02842291695833877,0.09020996804719125,0.0,0.0,0.0,-0.006677757371062117,-0.005693313711844358,-0.10024943299151663,0.02187475820434112,0.00378961462994707,0.0,-0.002085711586761198,-0.0,0.09229567963395245,0.46268678470369684,0.47416230702970136,0.011475522326004572,0.011475522326004572,0.030806711464451526,9.914609909057617,0.0,3.160458359151444,1,0.008043677192881394,-0.016287705819914747,0.0018396516737356951,9.843677520751953,1,-0.021279716491699217,0.044394524675646446,0.007430882590493998,0.47416230702970136,1.5707963267948966,0.49237818427186103,1,-0.010929526345295803,-0.021123613902700684,0.004455379513406209,0.0399717600000713
61.901325297000085,3.201586366798484,0.0,0.0,-0.011831603185505957,-0.02959185363448259,-0.0,-0.01542583549761844,-0.030841645671180796,0.0,0.03558450564742088,0.04717653346601816,-0.012298919457169145,-0.040934355856876166,0.04717653346601816,0.0,0.0,0.0,0.013253687568630898,-0.0046263367536794634,-0.03829352897906948,-0.03332877965217643,0.0025441408343185425,-0.0,-0.004580899244373628,-0.0,0.051757432710391786,0.44628068973494983,0.47284676477318316,0.026566075038233272,0.026566075038233272,0.04820037010453785,9.918646812438965,0.0,3.160458359151444,1,0.008225601529407989,-0.01579788049340425,0.0017650792187770728,9.843677520751953,1,-0.022490787506103515,0.04351186404500307,0.006928597034565282,0.47284676477318316,1.5707963267948966,0.49237818427186103,1,-0.011718851699206723,-0.02158235734285703,0.0027259282480014816,0.04000001800000064
62.00332711100009,3.202434253626254,0.0,0.0,-0.013471386572536301,0.023717049872541526,-0.0,-0.009833055425312032,-0.048966814260602703,0.0,0.022269301116466522,0.029756021381072664,0.04338809777918795,-0.03282865097125699,0.029756021381072664,0.0,0.0,0.0,0.017740486914419047,-0.004041700825217,0.009988071444843295,-0.04954322445038369,0.0006177740025348485,0.0,0.0017165330728902619,-0.0,0.0280394883081824,0.4359832471481835,0.4720177900145361,0.03603454286635266,0.03603454286635266,0.06019791040394671,9.920494079589844,0.0,3.160458359151444,1,0.008395178894962019,-0.01546398939362931,0.001661281614503284,9.843677520751953,1,-0.023044967651367185,0.04290057272319858,0.0052745844994522275,0.4720177900145361,1.5707963267948966,0.49237818427186103,1,-0.012216236554394966,-0.021905518870021214,0.0017690525216570133,0.04000599899995905
62.10136922200013,3.2032957514835734,0.0,0.0,-0.011063829216733108,0.047044270611883626,-0.0,-0.007931433625637469,-0.060824942628981554,0.0,0.02201198786497116,-0.054102199815811894,0.06950304301861521,-0.03289626201220371,-0.054102199815811894,0.0,0.0,0.0,0.013149950372115044,-0.003619430412290329,0.03749411224079802,-0.05837665986426021,-0.002420888470255319,-0.0,0.00015285881083172345,-0.0,-0.054255058626643614,0.4239404753094229,0.4703974732529416,0.04645699794351854,0.04645699794351854,0.07126511588176725,9.920247077941895,0.0,3.160458359151444,1,0.008567478466425893,-0.01495313163271822,0.0012990741187024206,9.843677520751953,1,-0.022970867156982423,0.04197611299277985,0.003261506713893275,0.4703974732529416,1.5707963267948966,0.49237818427186103,1,-0.013188426611351644,-0.022418950167810776,0.001141097760679402,0.040063741000039954
62.20087827800012,3.203481676861274,0.0,0.0,-0.009228554988661146,0.03434674293471475,-0.0,-0.008230306387180461,-0.06433225110922472,0.0,0.004659152124077082,0.0195336950545033,0.05974079028076518,-0.041825533584562376,0.0195336950545033,0.0,0.0,0.0,0.00962338950013863,-0.0033658107902914333,0.028068019123986807,-0.059848462151327636,-0.004460079181244945,-0.0,0.00952663658237315,-0.0,0.010007058472130152,0.41870448755343936,0.469596523480624,0.0508920359271845,0.0508920359271845,0.07218064257447282,9.919698715209961,0.0,3.160458359151444,1,0.008604663541966052,-0.014609020255313085,0.0011500696792943554,9.843677520751953,1,-0.022806358337402344,0.041365621059971054,0.0019776170387969566,0.469596523480624,1.5707963267948966,0.49237818427186103,1,-0.013668996474742234,-0.02278058307183668,0.0010154267269768017,0.04002175899995564
62.30132542599995,3.2027899063316974,0.0,0.0,-0.008284735656173227,0.01835557632808673,-0.0,-0.009036847395860068,-0.06816534687961746,0.0,-0.0030651905108243227,0.05010020856790471,0.047172044791867734,-0.05251894789224948,0.05010020856790471,0.0,0.0,0.0,0.007966818965604415,-0.003105305257575052,0.013468564659452892,-0.060533210543108604,-0.007608760500431732,-0.0,0.013030152555883351,-0.0,0.03707005601202136,0.4166100924510463,0.4687739437433785,0.052163851292332364,0.052163851292332364,0.06858052004828716,9.919251441955566,0.0,3.160458359151444,1,0.00846630943605069,-0.014097560351107844,0.0009677966068859335,9.843677520751953,1,-0.022672176361083984,0.040457525358143634,0.0008663814185882826,0.4687739437433785,1.5707963267948966,0.49237818427186103,1,-0.01416254431708952,-0.023343404463240118,0.0009540056830565676,0.03986164799994185
62.40092888899994,3.202515699692879,0.0,0.0,-0.0077416032699027405,-0.03147642353278908,-0.0,-0.016618888608874588,-0.05423402335355485,0.0,0.00236822129227221,0.04886341391776996,-0.0036136569448273134,-0.06260220452200188,0.04886341391776996,0.0,0.0,0.0,0.007553638694290834,-0.0026828603990716724,-0.03643344261009736,-0.04487979161262204,-0.009314058060469995,0.0,0.009451951212111976,-0.0,0.039411462705657985,0.41975168510463634,0.4682090800073313,0.04845739490269496,0.04845739490269496,0.05909492907148368,9.919724464416504,0.0,3.160458359151444,1,0.008411468108287056,-0.013760594495808368,0.0010409952513871312,9.843677520751953,1,-0.022814083099365234,0.03984866250836347,0.001086893903460599,0.4682090800073313,1.5707963267948966,0.49237818427186103,1,-0.014501462558717836,-0.02372822383564306,0.0012108925070217504,0.039882278000050064
62.50397185199995,3.2033522839394877,0.0,0.0,-0.01341773261095763,0.0057773096752742285,-0.0,-0.03175708250400172,-0.023131466519398822,0.0,0.027573050931096077,-0.0415322052751975,0.015578801921102836,-0.018048351202398755,-0.0415322052751975,0.0,0.0,0.0,0.02258206182145755,-0.0012625364493770448,-0.015857045974519503,-0.012224601536262593,-0.010773845569792533,0.0,-0.005499787077064886,-0.0,-0.03603241819813261,0.4295255289158044,0.46733807401631705,0.03781254510051246,0.03781254510051246,0.04323143517809913,9.921060562133789,0.0,3.160458359151444,1,0.008578784957608753,-0.013252618845408787,0.0015206748320503788,9.843677520751953,1,-0.02321491241455078,0.03893026943517533,0.0026913821153633838,0.46733807401631705,1.5707963267948966,0.49237818427186103,1,-0.015024066153326387,-0.024322093594265497,0.002032440181652622,0.04015616699985003
62.60095177800008,3.204866111869133,0.0,0.0,-0.02753288913600328,0.17881267477180685,-0.0,-0.03433827767670609,-0.018066290654309813,0.0,0.04005676507949829,-0.10068291762260374,0.16781002853535362,0.06434405831168702,-0.10068291762260374,0.0,0.0,0.0,0.05617598947441267,0.00013770379801260725,0.1221310668119518,-0.006790171109876395,-0.010981120639832486,-0.0,-0.013115675548808667,-0.0,-0.08756724207379507,0.4386012410261748,0.46683725331175363,0.028236012285578926,0.028236012285578926,0.029628759762865917,9.922693252563477,0.0,3.160458359151444,1,0.008881550543537831,-0.01290071549828,0.0020208164889264683,9.843677520751953,1,-0.023704719543457032,0.03830277991672534,0.00359924545821554,0.46683725331175363,1.5707963267948966,0.49237818427186103,1,-0.01532455857606444,-0.02472992060759653,0.0026297600933747048,0.04001751900000272
62.701297092000004,3.209173826473405,0.0,0.0,-0.026783435783670692,0.11027648549990174,-0.0,-0.04780089292330664,0.013513018051963662,0.0,0.017539719119668007,0.03507341472298036,0.09241886978287706,0.06166244739822082,0.03507341472298036,0.0,0.0,0.0,0.058680004400294826,0.0026712915763383365,0.04821319151760854,0.02357475391839779,-0.00966279451416079,-0.0,-0.001755561919733693,-0.0,0.036828976642714055,0.45535640184532067,0.46644630030798645,0.011089898462665726,0.011089898462665726,0.005390803180380205,9.930693626403809,0.0,3.160458359151444,1,0.00974309346439224,-0.012332745258091402,0.002478945282889751,9.843677520751953,1,-0.02610483169555664,0.037289942488314236,0.003428671794020922,0.46644630030798645,1.5707963267948966,0.49237818427186103,1,-0.015559130378324747,-0.02535149743691756,0.0038255321275710314,0.040001981999921554
62.80088296300005,3.211831187844305,0.0,0.0,-0.023053032414271753,-0.031254449996089874,-0.0,-0.06514833177842337,0.0549893410575926,0.0,0.026717321947216988,0.03441057346708251,-0.05265356011254202,0.03504669573556465,0.03441057346708251,0.0,0.0,0.0,0.05339094881727989,0.005003362951059178,-0.09097022135719172,0.0632025237108144,-0.007745578188233799,0.0,-0.008183552251536724,-0.0,0.04259412571861924,0.4675737066092811,0.46668659144754576,-0.0008871151617353412,-0.0008871151617353412,-0.007749403615500295,9.936407089233398,0.0,3.160458359151444,1,0.01027456573857224,-0.011926407921337295,0.002867422867256888,9.843677520751953,1,-0.027818870544433594,0.036558340287578664,0.0043385984515107116,0.46668659144754576,1.5707963267948966,0.49237818427186103,1,-0.01541495569458916,-0.025763777269868685,0.004758821054586469,0.03995686999996906
62.90128098100013,3.217753385178262,0.0,0.0,-0.03286787681747949,0.1262807815410312,-0.0,-0.07726631834172787,0.08919162818407234,0.0,0.05045844987034798,-0.04887081547239886,0.07247692128335298,0.13656162786824894,-0.04887081547239886,0.0,0.0,0.0,0.08035064282758071,0.009130058173984584,0.034944722705772084,0.09321710087446328,-0.0032362326432530926,-0.0,-0.023418705066172173,-0.0,-0.025452110406226688,0.4857251308300219,0.4679314001613214,-0.01779373066870038,-0.01779373066870038,-0.029136992008172616,9.944770812988281,0.0,3.160458359151444,1,0.011459005205363582,-0.011264193273866858,0.0034603307181059234,9.843677520751953,1,-0.030327987670898435,0.035381802974673256,0.006373459456286203,0.4679314001613214,1.5707963267948966,0.49237818427186103,1,-0.014668070466323778,-0.026362033726767972,0.0061351953397562765,0.039986574000067776
63.003115981000064,3.2216580039826757,0.0,0.0,-0.03751462446984709,0.16534282295561187,-0.0,-0.0841933469533245,0.11065249475376296,0.0,0.047043636441230774,-0.05595091384820948,0.09746420385409604,0.1734443791687974,-0.05595091384820948,0.0,0.0,0.0,0.09413399253205412,0.012263669998058441,0.05674488973803345,0.11090573889768401,0.0007271460122994246,-0.0,-0.022947128221917367,-0.0,-0.033003785626292116,0.49741883681838406,0.46906171266616714,-0.02835712415221714,-0.02835712415221714,-0.04493518744357668,9.950996398925781,0.0,3.160458359151444,1,0.012239928966246351,-0.01078296364760938,0.0038165886351769055,9.843677520751953,1,-0.032195663452148436,0.03453635306610331,0.006457733124080289,0.46906171266616714,1.5707963267948966,0.49237818427186103,1,-0.013989882963416333,-0.026739772274298815,0.006948007783337919,0.039964833000112776
63.10148866600002,3.227385582204882,0.0,0.0,-0.03082753829470982,0.051375023325538186,-0.0,-0.08737969586629867,0.12705666052685696,0.0,0.0507066585123539,-0.04288765264771476,-0.01188219797680351,0.136534249831962,-0.04288765264771476,0.0,0.0,0.0,0.08415632811449575,0.01735553321601688,-0.0525025953820247,0.12083278490743664,0.007058514323686395,0.0,-0.027154765770555925,-0.0,-0.015732886877158837,0.5115560037595381,0.4710569798426918,-0.040499023916846344,-0.040499023916846344,-0.05371415668384043,9.960002899169922,0.0,3.160458359151444,1,0.013385444610687625,-0.010002655855245856,0.004042549365528296,9.843677520751953,1,-0.03489761352539062,0.0331764947128742,0.007169834373943775,0.4710569798426918,1.5707963267948966,0.49237818427186103,1,-0.012792722657501542,-0.02726682935395612,0.007603849284902925,0.04008049999993091
63.20093192500008,3.230998665736095,0.0,0.0,-0.03567490600395723,0.1472482808916287,-0.0,-0.08072005959824585,0.11772737459483013,0.0,0.04710126295685768,-0.005755821918471252,0.07756731266490413,0.17182870237674625,-0.005755821918471252,0.0,0.0,0.0,0.09770352498118631,0.02073870478153608,0.02678942138199803,0.10734380527417611,0.01127483571743081,-0.0,-0.02657266328127127,-0.0,0.02081684136280002,0.5181882549171162,0.4723143967983051,-0.04587385811881095,-0.04587385811881095,-0.05862812683409026,9.966492652893066,0.0,3.160458359151444,1,0.014108061316930254,-0.00944524181784824,0.004072967670227255,9.843677520751953,1,-0.03684453964233398,0.03220677362588357,0.007451256837855974,0.4723143967983051,1.5707963267948966,0.49237818427186103,1,-0.01203827248413355,-0.02759344965565936,0.007704301302536192,0.040068499999961205
63.30140153699995,3.23509529389052,0.0,0.0,-0.021422195746683848,0.11050687724671918,-0.0,-0.0844408711593248,0.1352858474275217,0.0,0.05413569137454033,-0.046010254296946995,0.036463698395687874,0.17083450802549363,-0.046010254296946995,0.0,0.0,0.0,0.06836179956728283,0.024815966647647694,0.015125076815049744,0.11797627349845187,0.017868725578918207,-0.0,-0.032931093910936994,-0.0,-0.013079160386009998,0.5227261109723016,0.4746361756916601,-0.04808993528064143,-0.04808993528064143,-0.055908184316166065,9.975236892700195,0.0,3.160458359151444,1,0.014927386947815258,-0.008562916257823442,0.0032868788211801643,9.843677520751953,1,-0.039467811584472656,0.03065784665921961,0.00806049978156505,0.4746361756916601,1.5707963267948966,0.49237818427186103,1,-0.01064520514812055,-0.028039101801148276,0.007869014652876687,0.03987707400006002
63.40086931400015,3.2373742915958146,0.0,0.0,-0.01319443819542708,0.008293410207194893,-0.0,-0.0855790752267161,0.14267916317062407,0.0,0.04508335143327713,0.007409886394305384,-0.057982629554658216,0.13062977809772794,0.007409886394305384,0.0,0.0,0.0,0.051269271952615075,0.027044344359273158,-0.07228246479244298,0.12112743159649998,0.02190052282196712,0.0,-0.02907759899842799,-0.0,0.036487485392733374,0.5222025121967033,0.475805430169399,-0.046397082027304304,-0.046397082027304304,-0.05088244995730347,9.979644775390625,0.0,3.160458359151444,1,0.015383186488874136,-0.007953194860739914,0.002679784700354642,9.843677520751953,1,-0.04079017639160156,0.02958030338668313,0.00783055944081558,0.475805430169399,1.5707963267948966,0.49237818427186103,1,-0.009943652461477203,-0.028307808984444374,0.0077303096721600085,0.04001901800006635
63.50338814800011,3.239093867942113,0.0,0.0,-0.012464854046772635,0.13794364381282997,-0.0,-0.06971712218750975,0.11254993052892888,0.0,0.046942826360464096,-0.011725128723951712,0.07084022710935249,0.16333278284999303,-0.011725128723951712,0.0,0.0,0.0,0.050268097999439064,0.02928834529634223,0.056886633591769625,0.0857992194326799,0.02701900024996234,0.0,-0.032325252634384356,-0.0,0.020600123910432644,0.5181882549171162,0.4771968161514292,-0.040991438765686894,-0.040991438765686894,-0.046720100010928536,9.98546314239502,0.0,3.160458359151444,1,0.01572710175813379,-0.007014760218254642,0.0016719398676387019,9.843677520751953,1,-0.04253568649291992,0.02790243192267963,0.0077006598733971275,0.4771968161514292,1.5707963267948966,0.49237818427186103,1,-0.009108820872259083,-0.028683702682657478,0.0070750465640794895,0.04014911099989149
63.60089014699997,3.2402517482486153,0.0,0.0,-0.0007500486274713385,-0.0302767895186926,-0.0,-0.06211714371422823,0.09755837681870888,0.0,0.031199587509036064,0.02690477547992229,-0.0717206730439374,0.0727355891512885,0.02690477547992229,0.0,0.0,0.0,0.025328014150574025,0.030669532515004243,-0.0874651509242983,0.06777880117249052,0.02979395442972198,-0.0,-0.025001713802704325,-0.0,0.05190648928262662,0.5134758659367318,0.4774517920520028,-0.036024073884728836,-0.036024073884728836,-0.04305677630596966,9.99009895324707,0.0,3.160458359151444,1,0.015958677819434275,-0.006381599906878108,0.0011856071647788685,9.843677520751953,1,-0.043926429748535153,0.026750660092317653,0.006705834160746356,0.4774517920520028,1.5707963267948966,0.49237818427186103,1,-0.008955835331914951,-0.028924371083937552,0.006571608689119961,0.04009620400006497
63.701371092000045,3.239898780052179,0.0,0.0,0.009097428778637152,-0.01227235620094762,-0.0,-0.05216004145390691,0.07603642996712945,0.0,0.015760958194732666,0.06112038306790843,-0.045857140328533406,0.06188111254460698,0.06112038306790843,0.0,0.0,0.0,0.0031091259455802824,0.031455548836451616,-0.04767677015669206,0.043327928156901875,0.03256203974630778,-0.0,-0.018808239386125563,-0.0,0.079928622454034,0.503178423349965,0.47772894139401983,-0.025449481955944986,-0.025449481955944986,-0.027473967493977854,9.995226860046387,0.0,3.160458359151444,1,0.015888084180147023,-0.005424772801057213,4.7356465720197973e-05,9.843677520751953,1,-0.045464801788330074,0.024950054303355056,0.004928640036165076,0.47772894139401983,1.5707963267948966,0.49237818427186103,1,-0.008789545726704717,-0.029277668957083766,0.005601686028473334,0.04006446300013522
63.8009182400001,3.2395830753495343,0.0,0.0,0.008507641006372593,0.04136515718593545,-0.0,-0.04234675777637372,0.05354683920514775,0.0,0.01979345642030239,-0.03119751208540145,0.012119079887732885,0.06656927309618037,-0.03119751208540145,0.0,0.0,0.0,0.004479538593289791,0.03159317690649282,0.004738898883742258,0.01974236775958101,0.03369326237805229,-0.0,-0.02284159692105448,-0.0,-0.008355915164346969,0.4954989746411904,0.4776689251483944,-0.017830049492796096,-0.017830049492796096,-0.023985955104014467,9.996527671813965,0.0,3.160458359151444,1,0.015824943239618073,-0.0047910705312993965,-0.0004900777959052693,9.843677520751953,1,-0.045855045318603516,0.023733547120410817,0.0038456264167376145,0.4776689251483944,1.5707963267948966,0.49237818427186103,1,-0.008825555474079993,-0.029512327875033873,0.004964929099822423,0.040070833000072525
63.901303980999955,3.238126481653154,0.0,0.0,0.011533643975285678,0.08035043995898812,-0.0,-0.022670361567365876,0.00484570119461919,0.0,-0.005497439298778772,0.001349278011210587,0.06914284931243549,0.04121820484480526,0.001349278011210587,0.0,0.0,0.0,-0.002671728886233831,0.03085455531550364,0.052008896661644426,-0.028205685390368267,0.03297063869555495,0.0,-0.010550409410128359,-0.0,0.011899687421338945,0.4848524662040248,0.4773357485447743,-0.007516717659250549,-0.007516717659250549,-0.014964743535791246,9.996271133422852,0.0,3.160458359151444,1,0.015533624500342036,-0.003851858896521506,-0.00136254384955023,9.843677520751953,1,-0.04577808380126953,0.021897361805087716,0.000799267013855775,0.4773357485447743,1.5707963267948966,0.49237818427186103,1,-0.009025461436252047,-0.02987032310508421,0.0034046568874393506,0.04000679599994328
64.00374059199999,3.234562398816276,0.0,0.0,0.02859066347098874,-0.023169937167477315,-0.0,-0.015221441178056683,-0.016241339803747,0.0,-0.023435251787304878,0.02346895610942198,-0.013130370064334072,-0.025064327019476567,0.02346895610942198,0.0,0.0,0.0,-0.04240396627853869,0.02953468967805126,-0.010372290742256195,-0.047768924309650344,0.03139304046296742,-0.0,-0.0013241875871389758,-0.0,0.02479314369656096,0.47874381382204456,0.4768640090021105,-0.0018798048199339945,-0.0018798048199339945,-0.015103722301190222,9.99382495880127,0.0,3.160458359151444,1,0.014820807932966407,-0.0032511594417130047,-0.0022535151468731584,9.843677520751953,1,-0.04504423141479492,0.020689511884860193,-0.0012875115692684463,0.4768640090021105,1.5707963267948966,0.49237818427186103,1,-0.00930850516185031,-0.03011620047155704,0.002490117041873243,0.04001616699997612
64.10129424000002,3.230658390405227,0.0,0.0,0.04091118963795564,-0.21433848199906932,-0.0,-0.007534661167523028,-0.042287489498252194,0.0,-0.03864835947751999,0.09825548823795173,-0.17109969918452203,-0.13584590377591893,0.09825548823795173,0.0,0.0,0.0,-0.0711507008611132,0.02734305586580918,-0.17054840961963763,-0.06941782353987591,0.02703491944972575,0.0,0.00650486360603313,-0.0,0.0917506246319186,0.4715879638888678,0.4762543085468488,0.004666344657981103,0.004666344657981103,-0.012537067486894194,9.989596366882324,0.0,3.160458359151444,1,0.014040006250756588,-0.0023930798640391347,-0.003076964412904178,9.843677520751953,1,-0.04377565383911133,0.01892087607339782,-0.00295214236841793,0.4762543085468488,1.5707963267948966,0.49237818427186103,1,-0.009674325435007335,-0.030498098093153694,0.0010842062061489474,0.040011073999949076
64.20085892500015,3.2273105392183967,0.0,0.0,0.03011248665658798,0.0029118851308670875,-0.0,0.0017938392770394645,-0.06828502178952614,0.0,-0.03768238052725792,0.0496424668347788,0.033863082690790434,-0.05936846727420301,0.0496424668347788,0.0,0.0,0.0,-0.048539004777535186,0.02537050690675665,0.026079385930148243,-0.09225102798410521,0.02398274364845514,-0.0,0.005146909580380025,-0.0,0.04449555725439877,0.46722464075888226,0.4757443215682176,0.008519680809335295,0.008519680809335295,-0.005134195813008127,9.986915588378906,0.0,3.160458359151444,1,0.013370436013390564,-0.001852135958384182,-0.0034689973882071215,9.843677520751953,1,-0.04297142028808593,0.017770934041229338,-0.0039037116464346157,0.4757443215682176,1.5707963267948966,0.49237818427186103,1,-0.009980317622186052,-0.03076234833920104,0.0006042197911060077,0.04002796300005684
64.30131266600006,3.2237647403535985,0.0,0.0,0.0382477085758938,0.04526488932419469,-0.0,-0.01031884712509911,-0.0470785857355295,0.0,-0.034442272037267685,-0.01852907944922731,0.061783075938549134,-0.021169670945970467,-0.01852907944922731,0.0,0.0,0.0,-0.06793432103230053,0.02173476453341386,0.09143141654999008,-0.06726707933607305,0.02006606771358609,-0.0,0.00266465649953279,-0.0,-0.0211937359487601,0.46198865300289915,0.47492875963970593,0.012940106636806892,0.012940106636806892,0.0031042049009968697,9.981776237487793,0.0,3.160458359151444,1,0.012661276240430919,-0.001078380711345605,-0.0042144237860553884,9.843677520751953,1,-0.04142961502075195,0.016088627813122553,-0.004660190663750301,0.47492875963970593,1.5707963267948966,0.49237818427186103,1,-0.010469654779293057,-0.031175243444113987,0.0007501059455474505,0.039934204000019236
64.40092033199994,3.2209273129509133,0.0,0.0,0.037763243796785105,-0.10588305459111609,-0.0,-0.010906148394137036,-0.04932525007277121,0.0,-0.04579820856451988,0.0633299157712276,-0.07163208379906462,-0.09226616993725527,0.0633299157712276,0.0,0.0,0.0,-0.06708223537620686,0.01952472223982332,-0.0583624699729008,-0.0668685588732976,0.017415441419280087,0.0,0.008943714317096637,-0.0,0.054386201454130964,0.45919612619970795,0.4746815338603451,0.015485407660637218,0.015485407660637218,0.008084577692393617,9.979134559631348,0.0,3.160458359151444,1,0.012093790759893875,-0.0005895693394410202,-0.004232902794670866,9.843677520751953,1,-0.04063711166381836,0.015000465059364924,-0.0052553714315720515,0.4746815338603451,1.5707963267948966,0.49237818427186103,1,-0.010617990246909547,-0.03145757683253806,0.0007746191974480359,0.03998074100013582
64.50466792500015,3.2181313990540987,0.0,0.0,0.030046784204312785,0.0009844075812376497,-0.0,-0.013308575248233617,-0.047442852547758055,0.0,-0.038064178079366684,-0.0360635365984924,0.022553187962304152,-0.04175101230977867,-0.0360635365984924,0.0,0.0,0.0,-0.04969587668366467,0.01607005723329793,0.0345551894482447,-0.06184419479492687,0.014277083837873268,-0.0,0.004098606052625578,-0.0,-0.04016214265111798,0.4555309347705201,0.47452859693053223,0.018997662160012307,0.018997662160012307,0.0162608839434724,9.971883773803711,0.0,3.160458359151444,1,0.011534607980530964,0.00011090126390528814,-0.004187759896334679,9.843677520751953,1,-0.03846187591552734,0.013432031303671722,-0.006203323379801771,0.47452859693053223,1.5707963267948966,0.49237818427186103,1,-0.010709752404797278,-0.03188578234265715,0.0011759618651631413,0.040207462999887866
64.60088747999998,3.2170227359661343,0.0,0.0,0.03688211622549504,-0.04683697552094714,-0.0,-0.01203355345748231,-0.05302035626526727,0.0,-0.04325626790523529,-0.002956197910111321,-0.01743018852728797,-0.06856419606725414,-0.002956197910111321,0.0,0.0,0.0,-0.06440454460284255,0.013785721911885231,0.003736834616261277,-0.06514905970335846,0.011990742673231608,-0.0,0.007567394764431144,-0.0,-0.010523592674542465,0.453611072593326,0.47461126678162846,0.02100019418830268,0.02100019418830268,0.01740957231854402,9.965668678283691,0.0,3.160458359151444,1,0.01131287536293808,0.0005656394582613712,-0.004271191596996475,9.843677520751953,1,-0.03659734725952148,0.012445654180090497,-0.006492250218419065,0.47461126678162846,1.5707963267948966,0.49237818427186103,1,-0.010660150494139542,-0.032170381304243746,0.00118376938482895,0.040012111000123696
