t,radius,set_speed_r,set_speed_r_filtered,meas_speed_r,acc_cmd_r,set_speed_theta,meas_speed_theta,acc_cmd_theta,set_speed_z,meas_speed_z,acc_cmd_z,acc_x,acc_y,acc_z,pub_vel_x,pub_vel_y,pub_vel_z,pid_r_P,pid_r_I,pid_r_D,pid_vtheta_P,pid_vtheta_I,pid_vtheta_D,pid_z_P,pid_z_I,pid_z_D,yaw_enu,yaw_target,error_yaw,total_yaw_err,yaw_rate,drone_z,target_z,r_lock_position,r_lock_active,r_pid_P,r_pid_I,r_pid_D,z_lock_position,z_lock_active,z_pid_P,z_pid_I,z_pid_D,theta_actual,theta_target,theta_lock_position,theta_lock_active,theta_pid_P,theta_pid_I,theta_pid_D,dt
9.601155272000142,9.289413438248456,0.0,0.0,-0.01677848198880787,-0.03057098163646234,-0.0,0.04331358772509087,-0.09811126945252506,0.0,-0.07692431658506393,0.21743457392265447,-0.06372893473870903,-0.08061655530269363,0.21743457392265447,0.0,0.0,0.0,0.03900742837224219,0.0007290111494768659,-0.07050937867617652,-0.09639019972141541,-0.0017993024695217353,0.0,0.04388131493306648,0.0,0.17355325898958798,-0.3595378259108317,-0.36687299348766106,-0.007335167576829171,-0.007335167576829171,-0.004491367614676016,7.8229193687438965,0.0,9.288091382785119,1,0.00026441109266741594,1.3220554633370796e-07,0.0006876239730884677,7.822357177734375,1,9.72747802734375e-06,3.2424926757812502e-09,-0.003798522417139804,-0.36687299348766106,1.5707963267948966,-0.36678882014930947,1,-5.0504003010953814e-05,-1.683466767031794e-08,-0.00044961858332841155,0.03996851800002332
9.701783475999946,9.292270374057631,0.0,0.0,-0.0031452127696190556,-0.008796224027370708,-0.0,0.034424144531083105,-0.08403803420131675,0.0,-0.09519405663013458,0.13728435353259438,-0.038348040801181524,-0.07529404037686048,0.13728435353259438,0.0,0.0,0.0,0.010580363233239817,0.0019033433962148416,-0.021407458341556246,-0.07770982735939742,-0.006339858597045254,-0.0,0.05122471395383469,0.0,0.08605963957875969,-0.35499996985564675,-0.36677837901721205,-0.01177840916156514,-0.01177840916156514,-0.02098292597313808,7.821577072143555,0.0,9.288091382785119,1,0.0008357982545025068,4.1532045022149306e-05,0.0007867129459652959,7.822357177734375,1,0.00023403167724609373,8.297340995021389e-07,-0.01005439478508903,-0.36677837901721205,1.5707963267948966,-0.36678882014930947,1,6.264679258449757e-06,-2.0493845580797503e-07,-0.00090456400944563,0.04010023999990153
9.80113514300001,9.29333456458967,0.0,0.0,-0.0070063730655450475,-0.02468544553798686,-0.0,0.03246761500602056,-0.08220552675916497,0.0,-0.07379908114671707,0.042593029670771575,-0.05251365027339353,-0.06789283015256044,0.042593029670771575,0.0,0.0,0.0,0.019895024668463872,0.0027761580858992026,-0.04747005862425639,-0.07332869536391202,-0.008901309177872263,-0.0,0.03814526504605075,0.0,0.004447764624720821,-0.3527310418280538,-0.36663660851123564,-0.013905566683181991,-0.013905566683181991,-0.025701324248094463,7.821119785308838,0.0,9.288091382785119,1,0.0010486363609103933,8.171922120672202e-05,0.0009064643834577785,7.822357177734375,1,0.0002982616424560547,6.27492224967674e-06,-0.010528175968004875,-0.36663660851123564,1.5707963267948966,-0.36678882014930947,1,9.132698284429752e-05,1.938556162365924e-06,-0.0009568756984006621,0.04024001900006624
9.90161458700004,9.293828339539646,0.0,0.0,0.007895938042168838,-0.04402609339779367,-0.0,0.015638766912957337,-0.04740793941532933,0.0,-0.07663168758153915,0.03837783121911421,-0.05809260540156376,-0.028479094387585304,0.03837783121911421,0.0,0.0,0.0,-0.0143385990188853,0.002743768809431275,-0.03245757861204048,-0.0357903159464614,-0.011604336938270496,0.0,0.0395766640520382,0.0,-0.00119883283292399,-0.3501130479500625,-0.3665619903655737,-0.016448942415511425,-0.016448942415511425,-0.03135423580276809,7.82088041305542,0.0,9.288091382785119,1,0.0011473913509053803,0.0001489346160846102,8.20670665946209e-05,7.822357177734375,1,0.0004430294036865234,2.1291683707906944e-05,-0.011134901915536578,-0.3665619903655737,1.5707963267948966,-0.36678882014930947,1,0.00013609787024146947,7.00382044060196e-06,-0.0007726602079344615,0.03998366700034239
10.003634735000105,9.29427579821705,0.0,0.0,0.006234778898071624,0.004590885455983859,-0.0,0.010929215103649723,-0.03754192386018181,0.0,-0.07242830842733383,0.05862207411012757,-0.009169938167444939,-0.03669311257441769,0.05862207411012757,0.0,0.0,0.0,-0.011371344853341726,0.0022616725846099418,0.013687705971079845,-0.02499540293106827,-0.012539189401495884,-0.0,0.037336400396289854,0.0,0.021285673713837716,-0.34906585039886595,-0.3665757387988622,-0.017509888399996232,-0.017509888399996232,-0.03191044499660933,7.81973934173584,0.0,9.288091382785119,1,0.0012368830863863423,0.00019755424483901792,-0.0003684515483090653,7.822357177734375,1,0.00047607421875,3.540516750948783e-05,-0.010712453819776892,-0.3665757387988622,1.5707963267948966,-0.36678882014930947,1,0.0001278488102683717,1.036321623998065e-05,-0.000570543709707842,0.04002649999983987
10.1016060500001,9.293659670748253,0.0,0.0,0.009319485471667853,0.001435952311645866,-0.0,-0.0055549429525680516,-0.0005138008498202177,0.0,-0.061175182461738586,0.002031192815362945,0.001156587719529018,-0.0009941102562753038,0.002031192815362945,0.0,0.0,0.0,-0.019073827655308857,0.0015102710280951253,0.01899618867619672,0.012317240999040167,-0.01283661222823476,0.0,0.031461035282392635,0.0,-0.02942984246702969,-0.3487167845484671,-0.36637781707788447,-0.01766103252941731,-0.01766103252941731,-0.03264866039627794,7.818559646606445,0.0,9.288091382785119,1,0.0011136575926268932,0.00026774531131517113,-0.0007318390937782376,7.822357177734375,1,0.0011392593383789062,7.497477721852029e-05,-0.009954357773348287,-0.36637781707788447,1.5707963267948966,-0.36678882014930947,1,0.00024660184285499873,1.823628474738808e-05,-0.00022103517151581735,0.039967499999875145
10.201133957000366,9.292793848623571,0.0,0.0,0.005224579564836046,0.06250276307550723,-0.0,-0.007717098346283119,0.005611196196145023,0.0,-0.058526661247015,-0.0065072028910085,0.06036781102737909,-0.017140837394575247,-0.0065072028910085,0.0,0.0,0.0,-0.010685946596035086,0.0007941571877232993,0.07238814390445565,0.01783178019360235,-0.012224922692039022,0.0,0.03028353584417095,0.0,-0.03679073873517945,-0.3495894491744642,-0.3661936777477252,-0.016604228573260826,-0.016604228573260826,-0.029200648547120987,7.8169379234313965,0.0,9.288091382785119,1,0.0009404931676904483,0.00030706478589069585,-0.0008802268414883184,7.822357177734375,1,0.0015685558319091797,0.00011359702661395896,-0.009736254365253223,-0.3661936777477252,1.5707963267948966,-0.36678882014930947,1,0.00035708544095055524,2.7000324179929705e-05,4.1705220420084045e-06,0.0400087039997743
10.30165121600021,9.290931537293414,0.0,0.0,0.0068058730114380255,-0.059086574235593485,-0.0,-0.011300095384974273,0.015241599325753247,0.0,-0.0639888271689415,0.04697345500013411,-0.04971844151130224,0.03537804656269648,0.04697345500013411,0.0,0.0,0.0,-0.014265127516475478,0.00049697947344725,-0.04533216993345894,0.026412396345361404,-0.011179074662587073,-0.0,0.0338493239553036,0.0,0.013124131044830515,-0.35255650890285484,-0.365997173391848,-0.013440664488993281,-0.013440664488993281,-0.021399524249068453,7.816478729248047,0.0,9.288091382785119,1,0.0005680309016590001,0.00034654683930638165,-0.0005928536006525727,7.822357177734375,1,0.0017635345458984373,0.00018038736024938553,-0.009517209149583311,-0.365997173391848,1.5707963267948966,-0.36678882014930947,1,0.000474988054476877,4.4496193479655944e-05,0.00018605506950619517,0.039974537000034616
10.401163920000272,9.290876692847569,0.0,0.0,-0.0031986430386751665,0.08483754758240039,-0.0,-0.006495776392892011,0.0059858816364571,0.0,-0.058521904051303864,0.013092118292540485,0.0813632551257006,-0.0247641065680125,0.013092118292540485,0.0,0.0,0.0,0.008290068654452728,0.0003914933888168568,0.07615144397514913,0.01617760289637322,-0.010189484907995112,-0.0,0.03095315929615003,0.0,-0.017861041003609544,-0.355523568631245,-0.36589657349473814,-0.01037300486349313,-0.01037300486349313,-0.016719433904211496,7.814607620239258,0.0,9.288091382785119,1,0.0005570620124899506,0.00036860756613426497,-0.00035609959254814273,7.822357177734375,1,0.002157497406005859,0.00023461447505969304,-0.009325417105452705,-0.36589657349473814,1.5707963267948966,-0.36678882014930947,1,0.0005353479927427962,5.842441633091395e-05,0.0002639070600221064,0.039999592999720335
10.504420679000305,9.291382584587232,0.0,0.0,0.001243388361677514,-0.07560171029937866,-0.0,-0.007693190733010802,0.00916336891248238,0.0,-0.07451841980218887,0.08979146955458647,-0.06731982168929371,0.03560375735423337,0.08979146955458647,0.0,0.0,0.0,-3.3066556854251686e-05,0.0011159066217910232,-0.07669092026493202,0.01874764978565893,-0.00958531038883092,0.0,0.04065155358953808,0.0,0.04913991596504839,-0.36163222101322523,-0.36586224738448675,-0.004230026371261353,-0.004230026371261353,-0.0036515232413142037,7.813104152679443,0.0,9.288091382785119,1,0.0006582403604227238,0.0004070006219089509,0.0001631171262302704,7.822357177734375,1,0.002775907516479492,0.0003347040435537777,-0.009876442046325349,-0.36586224738448675,1.5707963267948966,-0.36678882014930947,1,0.0005559436588936318,8.041102270875823e-05,0.0001921135788681373,0.04028211100012413
10.60114404900014,9.291345032735308,0.0,0.0,-0.007734035461284062,0.05957112753541223,-0.0,0.000501202442950004,-0.0086107022774279,0.0,-0.06650929898023605,0.04764151170502745,0.05254806470009463,-0.02935241601343099,0.04764151170502745,0.0,0.0,0.0,0.02026535250308463,0.0016088575617355168,0.037696890434260104,0.0006455601328476774,-0.009256679606865888,-0.0,0.036454048546787236,0.0,0.011187463158240216,-0.3659955441432108,-0.3658577229147595,0.0001378212284510738,0.0001378212284510738,0.0014748788506478271,7.808766841888428,0.0,9.288091382785119,1,0.0006507299900377462,0.0004328400727440125,0.00039391834097264583,7.822357177734375,1,0.0036446571350097655,0.0004268309066256153,-0.0098240394438927,-0.3658577229147595,1.5707963267948966,-0.36678882014930947,1,0.0005586583407299894,9.535324697198833e-05,0.00014062727926969775,0.039975203999802034
10.701676772000155,9.290547824283978,0.0,0.0,-0.0064954703945968705,-0.012361052858094043,-0.0,0.0019754498209949645,-0.012342850023642412,0.0,-0.07152921706438065,0.0819398035537676,-0.015957311292481128,-0.007106742628066581,0.0819398035537676,0.0,0.0,0.0,0.018368325205936523,0.0031204560140604444,-0.03385025411812192,-0.0026768084328251166,-0.009667422723132738,0.0,0.04049274615221732,0.0,0.04144705740155029,-0.37262779530078927,-0.36567300642888634,0.006954788871902817,0.006954788871902817,0.01063943123238102,7.805188179016113,0.0,9.288091382785119,1,0.0004912882997718526,0.00046453859676270275,0.0008979414388397201,7.822357177734375,1,0.005150699615478515,0.0006105197516130241,-0.009802526177776648,-0.36567300642888634,1.5707963267948966,-0.36678882014930947,1,0.0006694882322538787,0.00012104352826233208,-3.181304535084445e-05,0.040051796000170725
10.801183031000164,9.289901772519878,0.0,0.0,-0.004844647406728666,0.014851188954100824,-0.0,0.005371498237133314,-0.020227833126702482,0.0,-0.0672178566455841,0.05382380338701759,0.006638910762619613,-0.024200163434119657,0.05382380338701759,0.0,0.0,0.0,0.01418098188390436,0.0036669706328542424,-0.0029998694074791807,-0.010134863442435306,-0.010095770899569772,0.0,0.038557979838062244,0.0,0.015265823548955346,-0.37681658550557584,-0.36556313714631067,0.011253448359265228,0.011253448359265228,0.0186076845959542,7.801685810089111,0.0,9.288091382785119,1,0.0003620779469517999,0.00047981657131006256,0.0007593589313296348,7.822357177734375,1,0.006106281280517578,0.000766975012273413,-0.009827813208271356,-0.36556313714631067,1.5707963267948966,-0.36678882014930947,1,0.0007354098017992805,0.00014039434525166172,-0.00011106202011549506,0.040018259000135004
10.90168388300026,9.28915933504906,0.0,0.0,-0.008426388875528847,0.030869479118915546,-0.0,0.007805696047507626,-0.026851981096246536,0.0,-0.05876724794507027,0.012088371040949276,0.019229105393852947,-0.036113641960046614,0.012088371040949276,0.0,0.0,0.0,0.022161481991987395,0.004921831302140301,0.003779606685409522,-0.015742776090006717,-0.01111628571483444,0.0,0.034318490829741095,0.0,-0.02223011978879182,-0.38275070496235664,-0.3656096425572868,0.017141062405070073,0.017141062405070073,0.028493848379532928,7.799908638000488,0.0,9.288091382785119,1,0.0002135904527882815,0.00049464941410032,0.0009387721630313654,7.822357177734375,1,0.0067345619201660155,0.0010253312748089956,-0.00932965642381012,-0.3656096425572868,1.5707963267948966,-0.36678882014930947,1,0.0007075065552136105,0.0001689028250757899,-0.00022652064642119014,0.040125815000010334
11.00362640100002,9.289047548978843,0.0,0.0,-0.0030629945158407905,0.020846012109945952,-0.0,0.0029340784264340067,-0.016332615099685505,0.0,-0.06227854639291763,0.032383442284792736,0.013631989579174384,-0.022704171356730224,0.032383442284792736,0.0,0.0,0.0,0.009752534465144978,0.005309383921602545,0.005783166952593901,-0.004764791892227963,-0.011568790698051364,0.0,0.03677352860600411,0.0,-0.004390086321211374,-0.38589229761594623,-0.3654779641067488,0.020414333509197302,0.020414333509197302,0.03242628421301803,7.796853065490723,0.0,9.288091382785119,1,0.00019123323874481457,0.0005024227043573573,0.0006763197524865722,7.822357177734375,1,0.007224225997924804,0.0012137295306175885,-0.00942728757811985,-0.3654779641067488,1.5707963267948966,-0.36678882014930947,1,0.0007865136255363891,0.00018950453197536603,-0.00020775422754500448,0.04008044500005781
11.10171108600025,9.288654152225838,0.0,0.0,-0.004561682868761857,0.024872573772578264,-0.0,0.007348106790287051,-0.02642102427076037,0.0,-0.052480027079582214,-0.008784191086551124,0.013792911371278513,-0.03356294155005655,-0.008784191086551124,0.0,0.0,0.0,0.012484461679325919,0.005779889848250944,0.006602409274412058,-0.014182015475266698,-0.01224261747036882,-0.0,0.03195840488837505,0.0,-0.040742595974926174,-0.38920842319473525,-0.365303473206598,0.023904949988137414,0.023904949988137414,0.03593874873445448,7.79474401473999,0.0,9.288091382785119,1,0.00011255388814390699,0.0005112819899365195,0.0004892365619422246,7.822357177734375,1,0.00828394889831543,0.0015328943241834088,-0.0090328621547893,-0.365303473206598,1.5707963267948966,-0.36678882014930947,1,0.0008912081656268778,0.0002236898484452079,-0.00021316189436080662,0.040090148000217596
11.20125004900001,9.288349775308616,0.0,0.0,-0.004405679616781091,0.03725639422381883,-0.0,0.0038959202052389107,-0.018636865456134726,0.0,-0.05895295739173889,0.037869687227610006,0.02814255496582512,-0.030714300652728205,0.037869687227610006,0.0,0.0,0.0,0.011955305015716866,0.006140108575339532,0.019159346521794088,-0.006296424820064306,-0.012342288561337239,-0.0,0.03647793860927034,0.0,0.0013917486183396678,-0.39060468659633063,-0.3652315830964474,0.02537310349988342,0.02537310349988342,0.039579285649412994,7.791093349456787,0.0,9.288091382785119,1,5.1678504699381736e-05,0.0005140060629799124,0.0004628653681381899,7.822357177734375,1,0.009034395217895508,0.0017695469011648557,-0.008960335162015356,-0.3652315830964474,1.5707963267948966,-0.36678882014930947,1,0.0009343422317172555,0.00024829673247616355,-0.00014873004080191983,0.040006648000144196
11.301580974999979,9.288361174898537,0.0,0.0,0.0018602955981896789,0.00973514802787094,-0.0,0.003218511096894859,-0.0171918247615339,0.0,-0.05531597137451172,0.02706606084344735,0.0029530860574581647,-0.01953487211355876,0.02706606084344735,0.0,0.0,0.0,-0.0027323640864028646,0.006058897304791042,0.006407499562833136,-0.004614905273483537,-0.012576274876809094,-0.0,0.035350256015891125,0.0,-0.008284195172443776,-0.39043015367113165,-0.36521179461382575,0.02521835905730585,0.02521835905730585,0.0340130318364104,7.788431167602539,0.0,9.288091382785119,1,5.3958422683564325e-05,0.0005157972693873327,4.855623048111618e-05,7.822357177734375,1,0.01017780303955078,0.002162119679337515,-0.008738800733581473,-0.36521179461382575,1.5707963267948966,-0.36678882014930947,1,0.0009462153212902335,0.0002864535345539208,-0.00011184197416908457,0.039542889000131254
11.401218660000268,9.289040392737494,0.0,0.0,0.001791142857112058,0.019060909134102477,-0.0,0.0002177125498241721,-0.010350192072259057,0.0,-0.04724373295903206,-0.010327645500818869,0.014106255499529614,-0.01647599128226147,-0.010327645500818869,0.0,0.0,0.0,-0.0026339676861882387,0.005899313488488623,0.015795558229148604,0.0020928241783378866,-0.012442974270557882,-0.0,0.031433446726803475,0.0,-0.041761092227622344,-0.3895574890451341,-0.36527308828490557,0.02428440076022831,0.02428440076022831,0.03424701808773256,7.784255027770996,0.0,9.288091382785119,1,0.000189801990475047,0.0005218390561917344,-0.00011775622873119521,7.822357177734375,1,0.01102309226989746,0.0024491352353029567,-0.008326882586226672,-0.36527308828490557,1.5707963267948966,-0.36678882014930947,1,0.0009094391186423411,0.000310836749423327,-5.127960081518397e-05,0.04005246299993814
11.504612605000148,9.288573604009253,0.0,0.0,0.003195597617836476,-0.03184670493070887,-0.0,0.0035347365688825727,-0.017634320368196062,0.0,-0.05493876710534096,0.04594658792630352,-0.03604450798353033,-0.005096598278953243,0.04594658792630352,0.0,0.0,0.0,-0.00605422670137888,0.005761006761571197,-0.03155483012344188,-0.005091109240308172,-0.012541995053575433,-0.0,0.036837451438307196,0.0,0.009109136487996322,-0.3864158963915445,-0.3652325089408736,0.021183387450670832,0.021183387450670832,0.028485140652838387,7.782824993133545,0.0,9.288091382785119,1,9.644424482679881e-05,0.0005302437624139333,-0.00018301161730374673,7.822357177734375,1,0.011859655380249023,0.0029165144986260274,-0.00831918458703735,-0.3652325089408736,1.5707963267948966,-0.36678882014930947,1,0.0009337867250615139,0.0003482548208023099,-6.144554075769267e-05,0.04028401799996573
11.60117375300024,9.28778702216468,0.0,0.0,0.0038620808231020305,-0.025475140626970615,-0.0,0.002908049892481771,-0.01643754213829797,0.0,-0.04941115528345108,0.004261009644144456,-0.02966635432272271,-0.006251640001705312,0.004261009644144456,0.0,0.0,0.0,-0.008042375795553341,0.005569964390616416,-0.023003639746161448,-0.003803933560529405,-0.012632399342059824,-0.0,0.03416838294253921,0.0,-0.029907373298394754,-0.3834488366631543,-0.36532783089344517,0.018121005769708987,0.018121005769708987,0.02314361044186973,7.780074596405029,0.0,9.288091382785119,1,-6.0872124087651974e-05,0.000529397745234712,-0.0002620701596601844,7.822357177734375,1,0.012481641769409179,0.0032456012736593156,-0.008191093422287557,-0.36532783089344517,1.5707963267948966,-0.36678882014930947,1,0.0008765935535185787,0.00037200537727272257,-6.960974764107782e-05,0.039966591999927914
11.70176560400023,9.28672661282281,0.0,0.0,0.009548890847777509,-0.05839149171532528,-0.0,-0.0015428359700980152,-0.006299401796635429,0.0,-0.04807213693857193,0.0464458007661423,-0.05678830125604498,0.01497790399852511,0.0464458007661423,0.0,0.0,0.0,-0.021981197893464477,0.004637773946689728,-0.041048324085219454,0.006159968008407983,-0.012460956195263422,0.0,0.03438388379496714,0.0,0.012061916971175164,-0.3782128489071712,-0.36534377224814113,0.012869076659030032,0.012869076659030032,0.01561291178563435,7.779000759124756,0.0,9.288091382785119,1,-0.00027295399246192177,0.0005181228877052018,-0.0006877316354041702,7.822357177734375,1,0.013006925582885742,0.0037580842356330726,-0.0075306737654788495,-0.36534377224814113,1.5707963267948966,-0.36678882014930947,1,0.0008670287407010035,0.0004062339238021381,-1.6113176233892086e-05,0.04019224100011343
11.801271604000249,9.285726066641526,0.0,0.0,0.008823271033799797,-0.036137018033524565,-0.0,-0.0007659478967527813,-0.007338092661705488,0.0,-0.043018996715545654,0.056891469291956306,-0.03637456435805079,0.006051672828985147,0.056891469291956306,0.0,0.0,0.0,-0.021175602022991794,0.003941163955414709,-0.01890264314637908,0.004795800485694403,-0.012134620948957068,-0.0,0.032323055202345165,0.0,0.02456841408961114,-0.3740240587023851,-0.3652000390504344,0.008824019651950898,0.008824019651950898,0.009587990796984773,7.776507377624512,0.0,9.288091382785119,1,-0.0004730632287184733,0.0005012037157622506,-0.0008301431000584318,7.822357177734375,1,0.01341862678527832,0.004113492627207697,-0.006679357457456397,-0.3652000390504344,1.5707963267948966,-0.36678882014930947,1,0.000953268659325035,0.00043109300260654775,2.959975299491005e-05,0.04000170400013303
11.901673864000259,9.282847498649991,0.0,0.0,0.004586566708657069,0.051665394395708525,-0.0,-0.0031251039610805938,-0.0013072888485273185,0.0,-0.03226630017161369,0.002542341286392042,0.04779064783509222,-0.019674246153278355,0.002542341286392042,0.0,0.0,0.0,-0.013314585973066612,0.0028564967258502987,0.06212243156544872,0.010156812271791391,-0.011465645204479423,0.0,0.027228479098995124,0.0,-0.024686137812603082,-0.3668682087692079,-0.365233308479535,0.001634900289672725,0.001634900289672725,-0.003793076470732001,7.7747483253479,0.0,9.288091382785119,1,-0.001048776827025577,0.00044929190576446353,-0.0008660329032939137,7.822357177734375,1,0.014282655715942382,0.004673717791589599,-0.005841875180820467,-0.365233308479535,1.5707963267948966,-0.36678882014930947,1,0.0009333070018646805,0.00046902092631637826,8.930096155261611e-05,0.040097407000303065
12.003003734000231,9.281313783601911,0.0,0.0,0.005487746826874596,-0.017931346035107956,-0.0,-0.0009069180865621622,-0.006137202277098424,0.0,-0.0286653283983469,0.043057661919594176,-0.018940521844927116,0.0006745773955911276,0.043057661919594176,0.0,0.0,0.0,-0.01582948261126784,0.002310406940189643,-0.004412358982994153,0.005103893105593014,-0.01124163161462668,-0.0,0.02597162966222995,0.0,0.017086032257364228,-0.36163222101322523,-0.3653644307619198,-0.0037322097486947037,-0.0037322097486947037,-0.012956481908875347,7.774435043334961,0.0,9.288091382785119,1,-0.0013555198366415055,0.0003982743153962279,-0.0007502270206382353,7.822357177734375,1,0.014373636245727538,0.005057940985228427,-0.004810856192252952,-0.3653644307619198,1.5707963267948966,-0.36678882014930947,1,0.0008546336324337878,0.0004923947932285133,6.600489940872487e-05,0.04003687100021125
12.101687548999962,9.280026923170064,0.0,0.0,0.0009303204312480967,0.02642499769463332,-0.0,-0.0047521589112126455,0.003475064191278449,0.0,-0.002445449121296406,-0.058778524892985365,0.02592367252128693,-0.006190297028734153,-0.058778524892985365,0.0,0.0,0.0,-0.0060181712560834775,0.0016919044820667842,0.03074883096123625,0.014025239114561282,-0.010550651326052377,-0.0,0.01175434520414356,0.0,-0.07053287009712893,-0.35290557475325324,-0.3651563320974326,-0.012250757344179242,-0.012250757344179242,-0.02822517108387539,7.774688720703125,0.0,9.288091382785119,1,-0.0016128919230109064,0.0003065066899754184,-0.0004988267248452681,7.822357177734375,1,0.014300537109374999,0.005632432232137365,-0.0027878431225694966,-0.3651563320974326,1.5707963267948966,-0.36678882014930947,1,0.0009794928311261275,0.0005300060622312981,0.00011345088386687514,0.04001187099993331
12.201160382000126,9.278722999045984,0.0,0.0,-0.00661290623017377,0.08768721219010416,-0.0,-0.002878689521610416,0.00013733580469565214,0.0,-0.0010744113242253661,-0.03842392433899784,0.08195929126393292,-0.03117275442288363,-0.03842392433899784,0.0,0.0,0.0,0.010737464249255252,0.0017050928282563917,0.07524376200980643,0.010181496439347452,-0.010042109004931401,-0.0,0.011722259576029275,0.0,-0.05014618391502712,-0.3471459882216723,-0.36501408665561863,-0.017868098433946322,-0.017868098433946322,-0.03821941267557376,7.7747015953063965,0.0,9.288091382785119,1,-0.0018736767478269912,0.00023346435768655254,-9.202827219003491e-05,7.822357177734375,1,0.014386367797851561,0.006013885697326876,-0.0019375655260216755,-0.36501408665561863,1.5707963267948966,-0.36678882014930947,1,0.0010648400962145032,0.0005579286819147247,0.0001264946272364702,0.04011301899981845
12.301714474000164,9.278294696499056,0.0,0.0,-0.004397952091542974,-0.03853020754081846,-0.0,-0.007211406506257527,0.01085369487549424,0.0,-0.002682712860405445,0.02288643411576277,-0.03212039606639438,0.02388848555532205,0.02288643411576277,0.0,0.0,0.0,0.006636721818510508,0.0023420664863623183,-0.04751460079633142,0.02006081300804489,-0.009203699894462231,-0.0,0.013387109770025949,0.0,0.009499324345736823,-0.33964107243809627,-0.3648898124708404,-0.02524874003274391,-0.02524874003274391,-0.04752206410422239,7.775620937347412,0.0,9.288091382785119,1,-0.001959337257212468,0.0001167480890058167,0.00046132881235027163,7.822357177734375,1,0.014020872116088866,0.0065802253091696355,-0.0009719606689540333,-0.3648898124708404,1.5707963267948966,-0.36678882014930947,1,0.0011394046070814401,0.0006026189667837298,0.0001651212871704349,0.0400161659999867
12.401157271000102,9.278756492151158,0.0,0.0,-0.01108194093581519,0.012007848641605926,-0.0,-0.009200456462989906,0.01636976525636257,0.0,0.00811795238405466,0.006649030863052314,0.017058191517378522,0.011007985542530834,0.006649030863052314,0.0,0.0,0.0,0.022301380938780084,0.0031373841611160476,-0.013440039275469315,0.024709805555941333,-0.0083290518750855,0.0,0.0078082234929561485,0.0,-0.0011591926299038351,-0.335801348083709,-0.36483633638640395,-0.02903498830269502,-0.02903498830269502,-0.052624878651689015,7.776467800140381,0.0,9.288091382785119,1,-0.0018669781267920628,4.080594300550538e-05,0.0008812225837804957,7.822357177734375,1,0.013954925537109374,0.00695376769249321,0.00022296497604565505,-0.36483633638640395,1.5707963267948966,-0.36678882014930947,1,0.0011714902577433129,0.0006336796652354152,0.00022610341218651697,0.04015859199989791
12.504126252000333,9.279672563856234,0.0,0.0,-0.016532427028590493,-0.0065923473452507275,-0.0,-0.014924335680203606,0.0309532477470822,0.0,0.020481817424297333,-0.02469628767865496,0.004881224516741368,0.03126877414977835,-0.02469628767865496,0.0,0.0,0.0,0.03622212570804899,0.005236583125563494,-0.04807505872787156,0.03777770190329484,-0.0067978653419106996,0.0,0.001627659180602678,0.0,-0.026323946859257638,-0.33231068957972054,-0.36469786617829963,-0.03238717659857926,-0.03238717659857926,-0.05466298177955078,7.77626371383667,0.0,9.288091382785119,1,-0.001683763785776904,-6.441557569811215e-05,0.0016803549274522413,7.822357177734375,1,0.013828039169311523,0.007506046202004579,0.0018604973539856936,-0.36469786617829963,1.5707963267948966,-0.36678882014930947,1,0.0012545723826059008,0.0006825031255300557,0.0003102714949762718,0.04021870399992622
12.601513159000206,9.280213017388654,0.0,0.0,-0.019383959389049663,0.10713152125898007,-0.0,-0.013542418174903583,0.029858169052486665,0.0,0.023471344262361526,-0.01947326143683092,0.1107376883264642,-0.010287734956784353,-0.01947326143683092,0.0,0.0,0.0,0.04294569443047933,0.006534843793510332,0.05763122087116073,0.03532172336783105,-0.005435267714224346,-0.0,0.0002337003860693604,0.0,-0.01970696182290028,-0.33108895910332414,-0.3644440701273231,-0.03335511102399913,-0.03335511102399913,-0.05362859583434478,7.77876615524292,0.0,9.288091382785119,1,-0.001575673079292983,-0.00012876268349403924,0.001841246569409781,7.822357177734375,1,0.01345682144165039,0.007867321252316995,0.0025367022118430714,-0.3644440701273231,1.5707963267948966,-0.36678882014930947,1,0.0014068500131918182,0.0007191040813835804,0.00038695653408058416,0.04005626000025586
12.701677400000335,9.282251798932572,0.0,0.0,-0.012393133217783656,-0.06506176356095587,-0.0,-0.017508931597628716,0.041199427995915444,0.0,0.027761047706007957,0.02246054777363659,-0.046124022045574684,0.061668472781411465,0.02246054777363659,0.0,0.0,0.0,0.028941955879431033,0.009092953276888433,-0.10312969947547271,0.04472261144359123,-0.0034998065207736866,0.0,-0.002053216928596088,0.0,0.02451376470223268,-0.3317870908041223,-0.3641183242702003,-0.032331233466078135,-0.032331233466078135,-0.0523048364589772,7.782170295715332,0.0,9.288091382785119,1,-0.0011679167705093364,-0.00020615394037485507,0.002136371983751003,7.822357177734375,1,0.01205606460571289,0.008370012108070072,0.0039129427778981825,-0.3641183242702003,1.5707963267948966,-0.36678882014930947,1,0.0016022975274655015,0.0007804583563761633,0.0004367722656165375,0.04006144499999209
12.801277474000017,9.283150681297318,0.0,0.0,-0.022611938788946125,0.1303514651293236,-0.0,-0.008858796865543266,0.02404390149389069,0.0,0.03767219930887222,-0.011684830152360846,0.1303738911294908,-0.023922001842757033,-0.011684830152360846,0.0,0.0,0.0,0.051857613295017,0.01060274140744963,0.06788265658563439,0.026130908007832205,-0.0020654282180219046,-0.0,-0.00801168700226724,0.0,-0.003673143150093606,-0.33388148590651534,-0.3638732622199595,-0.029991776313444074,-0.029991776313444074,-0.04649191600113169,7.789754867553711,0.0,9.288091382785119,1,-0.0009881402975601362,-0.00024751869619097755,0.002195362611630896,7.822357177734375,1,0.010785341262817383,0.008667098266316918,0.004866948109292523,-0.3638732622199595,1.5707963267948966,-0.36678882014930947,1,0.001749334757609966,0.0008261693734744248,0.00044338446147789025,0.04003333299988299
12.901825937000012,9.283698050160503,0.0,0.0,-0.0044464445584707375,-0.02767206696820495,-0.0,-0.01772037948095248,0.046419426376469154,0.0,0.03544146195054054,0.010229780055975947,-0.009357050423169332,0.053225483020744174,0.010229780055975947,0.0,0.0,0.0,0.010870241356059062,0.01231773566796545,-0.05089386799719519,0.046301585248446825,0.00012632833694396545,0.0,-0.007442410435629445,0.0,0.017672190491605393,-0.33911747366249845,-0.36354793604706925,-0.024430462384570806,-0.024430462384570806,-0.03493547868653789,7.794484615325928,0.0,9.288091382785119,1,-0.0008786665249232329,-0.0003027030671657921,0.0016759438318269516,7.822357177734375,1,0.008361768722534179,0.009027777966156628,0.005647897869133996,-0.36354793604706925,1.5707963267948966,-0.36678882014930947,1,0.0019445304613441294,0.0009018019982575019,0.0004794631723762606,0.040248944999802916
13.003849604000152,9.28395614299504,0.0,0.0,-0.015480562221585758,0.03113707383810682,-0.0,-0.005824059915402053,0.02086146733164407,0.0,0.05011864751577377,-0.05096085263904966,0.03651910587949607,0.008430485881082101,-0.05096085263904966,0.0,0.0,0.0,0.03532945405623427,0.01355815995283037,-0.017754193750679197,0.02007788668138966,0.0007932919974984057,0.0,-0.016566823897670814,0.0,-0.03439402874137885,-0.3441789284932817,-0.3634216586327804,-0.019242730139498843,-0.019242730139498843,-0.028058188154914596,7.80150032043457,0.0,9.288091382785119,1,-0.0008270479580158252,-0.0003365470946440848,0.0017418755839079087,7.822357177734375,1,0.006926536560058594,0.009223172919101566,0.006357564873828924,-0.3634216586327804,1.5707963267948966,-0.36678882014930947,1,0.0020202969099174296,0.0009552064370246141,0.0003267488655602922,0.04001794400028302
13.101746863000244,9.281590268908396,0.0,0.0,-0.003307754119451555,0.07160062458531333,-0.0,0.00306427212526128,0.0023605630732714353,0.0,0.032015662640333176,0.020396152498970234,0.06776413923333009,-0.023243130877653288,0.020396152498970234,0.0,0.0,0.0,0.005097873111695617,0.013585618214955427,0.052916121604044325,0.0004826022281209722,0.0018768688061300159,-0.0,-0.00686159496746627,0.0,0.027257747466436503,-0.35342917352885195,-0.3633821241665964,-0.009952950637744262,-0.009952950637744262,-0.010543778812120251,7.804595947265625,0.0,9.288091382785119,1,-0.0013002227753446506,-0.0004044489646190994,0.0007141326712829299,7.822357177734375,1,0.005328369140625,0.009453413871739787,0.005797888015524609,-0.3633821241665964,1.5707963267948966,-0.36678882014930947,1,0.0020440175896278556,0.0010369002220160452,0.0002027189627632757,0.03999024099994131
13.201178400000117,9.280043293890943,0.0,0.0,0.006934011707753632,-0.15036281553125574,-0.0,-0.0006184923244628429,0.010240558561711887,0.0,0.03260980546474457,0.046541754397075585,-0.1369009017325064,0.06302371330673019,0.046541754397075585,0.0,0.0,0.0,-0.01902543594759017,0.013583040590113922,-0.14492046139478926,0.00833615375536325,0.0019039426713258626,0.0,-0.007526454090203828,0.0,0.05406820848727941,-0.359886891761231,-0.3634352627981053,-0.0035483710368744426,-0.0035483710368744426,-0.005490263500369862,7.808181285858154,0.0,9.288091382785119,1,-0.001609617778835215,-0.00046552283958209466,0.00036122689544813803,7.822357177734375,1,0.004547739028930664,0.009580006636823925,0.005937969648650264,-0.3634352627981053,1.5707963267948966,-0.36678882014930947,1,0.0020121344107225103,0.0010908613663759019,6.767269633113109e-05,0.039925129000039306
13.301945826000065,9.276881838778431,0.0,0.0,0.0043267149185458285,-0.03798508021410289,-0.0,0.012260976603340107,-0.01948075558488598,0.0,0.02037757635116577,0.007890856884578497,-0.04243000896905293,-0.004696860218910566,0.007890856884578497,0.0,0.0,0.0,-0.016520228415442616,0.01235411431917514,-0.03383517108302526,-0.020648755667328322,0.0011737185718343137,0.0,-0.0016258726619782858,0.0,0.009516729546556782,-0.37088246604879505,-0.3636291134303756,0.0072533526184193065,0.0072533526184193065,0.015758889512972798,7.809579372406006,0.0,9.288091382785119,1,-0.0022419088013375444,-0.0005866397548673795,-0.000353931259541346,7.822357177734375,1,0.003833341598510742,0.009741525282717212,0.004092921699974008,-0.3636291134303756,1.5707963267948966,-0.36678882014930947,1,0.0018958240313603379,0.0011684926486808123,-0.00018913810730482585,0.03988203699964288
13.401147326000228,9.273818673727622,0.0,0.0,0.02171534871264135,-0.10447320304488443,-0.0,0.00835639139221336,-0.011962821773575836,0.0,-0.0006176911992952228,0.08246290349832582,-0.10188943489606356,0.026005813115625012,0.08246290349832582,0.0,0.0,0.0,-0.05827531580204943,0.010650680058424618,-0.056856097023325204,-0.01247988878373924,0.0005366341334214098,0.0,0.009936671568134558,0.0,0.07252623193019125,-0.37768925013157295,-0.3639097749834057,0.013779475148167464,0.013779475148167464,0.025437360983008285,7.810560703277588,0.0,9.288091382785119,1,-0.002854541811499445,-0.00069534751380801,-0.0012235418720736592,7.822357177734375,1,0.003531789779663086,0.009836419723033745,0.0025752185782322106,-0.3639097749834057,1.5707963267948966,-0.36678882014930947,1,0.0017274270995422559,0.0012155521150688676,-0.00025926454227923474,0.04000335199998517
13.505710992000331,9.269448658279577,0.0,0.0,0.017923397454031584,-0.13060974958483,-0.0,0.01417988017174053,-0.027665469740869343,0.0,0.003631843253970146,0.01605077481601663,-0.13189564488059122,0.020683901085818576,0.01605077481601663,0.0,0.0,0.0,-0.052786556276012066,0.00851975345330289,-0.08636463834369133,-0.026125783041962638,-0.0015122684955660303,0.0,0.0066342764114506935,0.0,0.009416498404565937,-0.38746309394274103,-0.3642858785160481,0.023177215426692932,0.023177215426692932,0.0393182120086283,7.811283588409424,0.0,9.288091382785119,1,-0.003728544901108322,-0.0009030736736974142,-0.0014388731875317987,7.822357177734375,1,0.0033220767974853514,0.009974104425033496,0.0013927893838691211,-0.3642858785160481,1.5707963267948966,-0.36678882014930947,1,0.001501764979956821,0.0012785979533880224,-0.00047583868976914785,0.04021996300025421
13.601170825000281,9.267344778340886,0.0,0.0,0.01765797419461918,0.003002885494805123,-0.0,0.015907362869610274,-0.03268850730031822,0.0,-0.017581040039658546,0.052923938635166694,-0.0088481366024767,-0.03161117380740204,0.052923938635166694,0.0,0.0,0.0,-0.05450546507602121,0.006340472745889214,0.05114057289569171,-0.030164274760253584,-0.0024939226929860574,-0.0,0.018144753476828805,0.0,0.03477918515833789,-0.39269908169872414,-0.3645274673567863,0.028171614341937712,0.028171614341937712,0.04877822944150678,7.8117756843566895,0.0,9.288091382785119,1,-0.004149320888846475,-0.0010651135508881555,-0.001902802763837648,7.822357177734375,1,0.0030728816986083985,0.010056566190796416,-0.0004692321343486816,-0.3645274673567863,1.5707963267948966,-0.36678882014930947,1,0.0013568116755138914,0.0013156258729345768,-0.00047610866077163927,0.0402374069999496
13.7017492330001,9.262746646091339,0.0,0.0,0.019152981665360787,-0.11614921627423985,-0.0,0.01864117198735731,-0.04118037549314948,0.0,-0.030772969126701355,0.08210801074248818,-0.12319729249645008,0.0029817592828819683,0.08210801074248818,0.0,0.0,0.0,-0.060580030207773666,0.0034323108940923727,-0.059039012106588046,-0.03674592803250748,-0.00439590230347252,0.0,0.025263783022016543,0.0,0.05684422772047164,-0.39880773408070436,-0.3649183887230222,0.03388934535768229,0.03388934535768229,0.053395296732420994,7.81062650680542,0.0,9.288091382785119,1,-0.005068947338756047,-0.0013513596661981287,-0.0019630886968548845,7.822357177734375,1,0.003519201278686523,0.010188965188554356,-0.002374830557247989,-0.3649183887230222,1.5707963267948966,-0.36678882014930947,1,0.0011222588557723734,0.0013635715351482376,-0.0005473529637939746,0.04011825899988253
13.801180084999942,9.260246105418314,0.0,0.0,0.014617393226315454,-0.03847067054504025,-0.0,0.015927416078952816,-0.03624519459898343,0.0,-0.02812032587826252,0.04672683309880453,-0.04887687816992581,-0.020118583550176546,0.04672683309880453,0.0,0.0,0.0,-0.05208929837797041,0.001454060742104552,0.012137172291587645,-0.030902042011310953,-0.005318010998425835,-0.0,0.02374888305338442,0.0,0.02297795004542011,-0.40125119503349627,-0.36513985018446604,0.036111344849030225,0.036111344849030225,0.05698474010342003,7.807472229003906,0.0,9.288091382785119,1,-0.0055690554733608625,-0.001569666039172266,-0.0019208390693197855,7.822357177734375,1,0.004296684265136718,0.010298711450067678,-0.0031342498378262125,-0.36513985018446604,1.5707963267948966,-0.36678882014930947,1,0.0009893819789060564,0.0013908026190673937,-0.0004991512514347019,0.039959944000202086
13.901655640000172,9.258287302898454,0.0,0.0,0.00882282453364659,-0.02431388740300367,-0.0,0.014746149961188108,-0.035338730677106966,0.0,-0.04283658415079117,0.08459100787457913,-0.03533704255761114,-0.02431634079783841,0.08459100787457913,0.0,0.0,0.0,-0.040043325488672676,-0.0009659241715441474,0.01667187530638049,-0.028558916712189034,-0.006765761398887317,-0.0,0.03191047131251381,0.0,0.05268053656206531,-0.40282199136029107,-0.365441028076046,0.037380963284245006,0.037380963284245006,0.05795157383104999,7.807275295257568,0.0,9.288091382785119,1,-0.005960815977332956,-0.0019203571452832175,-0.001497513929497539,7.822357177734375,1,0.004524564743041992,0.010478600695410631,-0.004655630735054106,-0.365441028076046,1.5707963267948966,-0.36678882014930947,1,0.0008086752439580791,0.0014250004963448988,-0.0004688515573826118,0.04005662999998094
14.003265158999966,9.25763681203748,0.0,0.0,0.010210451430389452,-0.11132852472636141,-0.0,0.006812552905608159,-0.01829561563428276,0.0,-0.03604356199502945,0.056988406530257885,-0.1105144563036184,0.02270076908611449,0.056988406530257885,0.0,0.0,0.0,-0.04325768998399765,-0.0022602481561184743,-0.06581559983941497,-0.010912845089028782,-0.0073752568306881565,0.0,0.027912434153974416,0.0,0.029075972376283465,-0.4022983925846928,-0.365475027987304,0.036823364597388775,0.036823364597388775,0.05506432803238182,7.806704521179199,0.0,9.288091382785119,1,-0.006090914149527649,-0.002162975843099551,-0.0011982449333459177,7.822357177734375,1,0.004593658447265625,0.010600224837685962,-0.0047167216900236815,-0.365475027987304,1.5707963267948966,-0.36678882014930947,1,0.0007882752972032669,0.0014461132389764525,-0.0003822197619482793,0.04000196299966774
14.101736751000317,9.257689043717749,0.0,0.0,0.0036498333380058775,-0.02979514022872514,-0.0,0.0015561777642960103,-0.006608118488708578,0.0,-0.03219888359308243,0.03777873476957132,-0.030188722389896644,0.00447868861118524,0.03777873476957132,0.0,0.0,0.0,-0.028753080478231635,-0.004035631198461781,0.002993309861170247,0.0010079389839780157,-0.007615443951379367,0.0,0.02606307663808589,0.0,0.01171565813148543,-0.3993313328563026,-0.36553444413877545,0.033796888717527285,0.033796888717527285,0.04905468218042785,7.805234909057617,0.0,9.288091382785119,1,-0.006080467813474044,-0.0025273750529656233,-0.000811905831114288,7.822357177734375,1,0.005136680603027344,0.01079639180061341,-0.004693494933246697,-0.36553444413877545,1.5707963267948966,-0.36678882014930947,1,0.0007526256063204118,0.0014764681598119517,-0.00021476191820998257,0.0402184260001377
14.201146621000134,9.256743245020676,0.0,0.0,-0.002298936721779584,-0.011779103852119046,-0.0,0.007068548896988407,-0.01876469368666559,0.0,-0.03121768683195114,0.05947484779138569,-0.017706939920672942,-0.013316354432016002,0.05947484779138569,0.0,0.0,0.0,-0.015583168206593338,-0.004694819955433813,0.008493486689796303,-0.010899228598015813,-0.00786722058150497,-0.0,0.025854680133071073,0.0,0.03362016765831462,-0.3958406743523142,-0.36543204784192257,0.030408626510391557,0.030408626510391557,0.042505642463912266,7.805560111999512,0.0,9.288091382785119,1,-0.006269627552888579,-0.002776463165833569,-0.00033610427878167965,7.822357177734375,1,0.00524296760559082,0.010935805192301773,-0.0043053260747252815,-0.36543204784192257,1.5707963267948966,-0.36678882014930947,1,0.0008140633844321398,0.0014978311661155194,-0.00019754047083916622,0.04011175899995578
14.30162908400007,9.256790462619893,0.0,0.0,-0.0024065398909636072,0.02989460156071098,-0.0,0.0010033569863419712,-0.005176191293794325,0.0,-0.017817016690969467,0.007274151250994905,0.026072196446952606,-0.015515177447104091,0.007274151250994905,0.0,0.0,0.0,-0.015359854144099426,-0.0055438780405931915,0.05079822499008002,0.002789662997722976,-0.00796611513987746,0.0,0.018073795939712423,0.0,-0.010799644688717518,-0.3881612256435387,-0.36534965535961744,0.022811570283921334,0.022811570283921334,0.0271259697241993,7.807804584503174,0.0,9.288091382785119,1,-0.0062601840330451354,-0.003152522035448312,2.441429384828347e-05,7.822357177734375,1,0.004365777969360351,0.011125613806010551,-0.0031854152334863323,-0.36534965535961744,1.5707963267948966,-0.36678882014930947,1,0.000863498873815216,0.0015318349154553924,-0.00012394816760001197,0.0401042589996905
14.401170066000304,9.256995359086979,0.0,0.0,-0.0002966870791952423,-0.041508975640052126,-0.0,-0.0030246939264171966,0.003955876761796344,0.0,-0.008535443805158138,-0.0088659636135459,-0.03735562047200937,0.018525702113338538,-0.0088659636135459,0.0,0.0,0.0,-0.020342431264076432,-0.006200363864425369,-0.014967168820714758,0.011801949744437781,-0.007845976041077606,0.0,0.012538075879582862,0.0,-0.021404039493128763,-0.3817035074111601,-0.3653700325831198,0.016333474828040373,0.016333474828040373,0.01522466500538461,7.814212799072266,0.0,9.288091382785119,1,-0.006219204739628026,-0.003401703573172189,7.766156811568573e-05,7.822357177734375,1,0.0034709930419921874,0.011224012555741437,-0.0023336562702536597,-0.3653700325831198,1.5707963267948966,-0.36678882014930947,1,0.0008512725397138099,0.001554623442953532,-6.606729797645699e-05,0.040015203000166366
14.50380532500003,9.256643547415047,0.0,0.0,-0.008450812762616396,0.015279237023638459,-0.42500001192092896,0.0029479078203832627,-0.9725688748206587,0.0,0.012574409134685993,-0.07570183313591106,-0.33315510875122656,-0.9138552100124533,-0.07570183313591106,0.0,0.0,0.0,-0.0025788402636154097,-0.006801608398172339,0.02465874688288153,-0.936220571418103,-0.03635099468227317,-0.0,-0.00012858172725117577,0.0,-0.07557325140865988,-0.37105699897399447,-0.36529547226753606,0.005761526706458575,0.005761526706458575,0.0005508145954450332,7.817292213439941,0.0,9.288091382785119,1,-0.006289567074014357,-0.0037782300007778583,0.0004447841923506334,7.822357177734375,1,0.001519489288330078,0.011304234833950325,-0.0004636178663463691,-0.36529547226753606,1.5707963267948966,-0.36678882014930947,1,0.0008960087290640461,0.0015901345220027973,-9.302869980141708e-05,0.03997155500019289
14.60122173200034,9.25648241110835,0.0,0.0,-0.010129218986250767,0.041787951947972,-0.5249999761581421,0.0006616554012380464,-1.1042085341152954,0.0,0.015186036936938763,-0.05115485181822024,-0.3554386610102391,-1.0462724683371458,-0.05115485181822024,0.0,0.0,0.0,0.0010418454795297514,-0.006971445416371771,0.04771750458954023,-1.0301565774167292,-0.07405268073737006,0.0,-0.001977915230922407,0.0,-0.04917693658729783,-0.3635520831904189,-0.3653128298512968,-0.0017607466608779987,-0.0017607466608779987,-0.012024425337859376,7.824514865875244,0.0,9.288091382785119,1,-0.006321794335353914,-0.004031064743794522,0.0006972062199566473,7.822357177734375,1,3.461837768554687e-05,0.011312545661590706,0.0005423475127918326,-0.3653128298512968,1.5707963267948966,-0.36678882014930947,1,0.0008855941788075915,0.00161381357018601,-9.074327472532767e-05,0.04005633399992803
14.701627066000128,9.255233051201916,0.0,0.0,-0.007243367436958114,0.017260140705940213,-0.7250000238418579,-0.02865408546285144,-1.6849963730271091,0.0,0.0260748453438282,-0.06691210218588958,-0.5859371715657702,-1.5799330114119416,-0.06691210218588958,0.0,0.0,0.0,-0.006603682348536129,-0.007395105741595708,0.031170216106810728,-1.5319610644338144,-0.1530128832185443,0.0,-0.008697612373357132,0.0,-0.05821448981253245,-0.35360370645405137,-0.36538100986083344,-0.011777303406781847,-0.011777303406781847,-0.021688378299998444,7.827743053436279,0.0,9.288091382785119,1,-0.006571666316640546,-0.0044180637992378355,0.0007446888841311172,7.822357177734375,1,-0.001615762710571289,0.011267356536433924,0.0019272308957036784,-0.36538100986083344,1.5707963267948966,-0.0,0,0.0008855941788075915,0.00161381357018601,-9.074327472532767e-05,0.040049555000223336
14.80151312099997,9.253387072236027,0.0,0.0,-0.013462946549729873,0.0609856879451164,-0.8550000190734863,-0.07095269326566009,-1.925007347335881,0.0,0.025995897129178047,-0.03673863871660199,-0.63029129273624,-1.8199190717535063,-0.03673863871660199,0.0,0.0,0.0,0.006186857554706007,-0.0074755411645440325,0.06173032377630311,-1.7249041167772179,-0.2,0.0,-0.008609369064659016,0.0,-0.02812926965194297,-0.3485422516232677,-0.3650711332991846,-0.016528881675916818,-0.016528881675916818,-0.017854545011470678,7.830882549285889,0.0,9.288091382785119,1,-0.006940862109818369,-0.004693091881146157,0.0009832154206464731,7.822357177734375,1,-0.0022832393646240235,0.011210212786748957,0.002719975265954753,-0.3650711332991846,1.5707963267948966,-0.0,0,0.0008855941788075915,0.00161381357018601,-9.074327472532767e-05,0.040164481999909185
14.901737916999991,9.250037885431006,0.0,0.0,-0.007083023583746378,-0.07293171247625597,-0.7549999952316284,-0.19677092839715662,-1.4282546202702286,0.0,0.015558085404336452,0.029155104694935024,-0.5761295166092633,-1.3089328000701759,0.029155104694935024,0.0,0.0,0.0,-0.009988777427642303,-0.007564298789731881,-0.05956443514336656,-1.2281039470358381,-0.2,0.0,-0.0027260389183244756,0.0,0.0318811436132595,-0.3427826650916863,-0.3636150846851535,-0.020832419593467044,-0.020832419593467044,-0.0042947908927949315,7.831971168518066,0.0,9.288091382785119,1,-0.007610699470822624,-0.005136517090209774,0.0011238396010849723,7.822357177734375,1,-0.0028841972351074216,0.011100025541940554,0.002798858900295861,-0.3636150846851535,1.5707963267948966,-0.0,0,0.0008855941788075915,0.00161381357018601,-9.074327472532767e-05,0.04009425900039787
15.003390325000055,9.249272001772994,0.0,0.0,-0.015207042476142324,0.031802812421256155,-0.7300000190734863,-0.31030857409349777,-1.123831367829872,0.0,0.008228183723986149,0.045806120336539434,-0.36757458502221,-1.0624957819408096,0.045806120336539434,0.0,0.0,0.0,0.0073976420325174794,-0.007460109087241679,0.021454577840491457,-0.9233211789559749,-0.2,0.0,0.001563740999262972,0.0,0.04424237933727646,-0.3405137370640938,-0.36135677229406704,-0.020843035229973328,-0.020843035229973328,0.011797511807358031,7.8295488357543945,0.0,9.288091382785119,1,-0.007763876202425024,-0.00544605168425859,0.0013654499707765088,7.822357177734375,1,-0.002592802047729492,0.011028184853671796,0.002399035916815464,-0.36135677229406704,1.5707963267948966,-0.0,0,0.0008855941788075915,0.00161381357018601,-9.074327472532767e-05,0.03998537000006763
15.101578306000192,9.246872403562325,0.0,0.0,-0.01948747344479268,0.03979570633040395,-0.7599999904632568,-0.5186101887886368,-0.7321505172625355,0.0,0.007508144248276949,-0.001526946101178687,-0.21778777116981335,-0.7001403894213067,-0.001526946101178687,0.0,0.0,0.0,0.01621106531776793,-0.006398038166595716,0.0008964631942711302,-0.531057563684164,-0.2,0.0,0.0022189252271012363,0.0,-0.0037458713282799232,-0.33719761148530436,-0.35587629030919377,-0.018678678823889516,-0.018678678823889516,0.04002749166359764,7.827070713043213,0.0,9.288091382785119,1,-0.008243795844558833,-0.005934206867852033,0.002059195321149062,7.822357177734375,1,-0.0014140605926513672,0.010955854895497934,0.001664558657265777,-0.35587629030919377,1.5707963267948966,-0.0,0,0.0008855941788075915,0.00161381357018601,-9.074327472532767e-05,0.03998664800019469
15.201184917000319,9.245115193075492,0.0,0.0,-0.03406879905838758,0.21767173409777946,-0.824999988079071,-0.6433727145460112,-0.4809508527352224,0.0,0.008702985011041164,-0.03858434776278118,0.039101927116552804,-0.5264653320662661,-0.03858434776278118,0.0,0.0,0.0,0.04805574927317183,-0.005308063653676032,0.13015138300275428,-0.2785799860371055,-0.2,0.0,0.001768691455003676,0.0,-0.04035303921778486,-0.3352777493081107,-0.35086611986011546,-0.015588370552004793,-0.015588370552004793,0.06134615839185396,7.821539878845215,0.0,9.288091382785119,1,-0.008595237941925404,-0.006276068757742288,0.002646030038176395,7.822357177734375,1,-0.00026664733886718747,0.010942309794788739,0.0009751416467924063,-0.35086611986011546,1.5707963267948966,-0.0,0,0.0008855941788075915,0.00161381357018601,-9.074327472532767e-05,0.04089738899983786
15.30162493600028,9.24367142009929,0.0,0.0,-0.02821452925021911,0.05491114709686905,-1.0099999904632568,-0.8124997373629251,-0.6369805560076087,0.0,-0.0019698874093592167,0.056555861933566466,-0.161336036616598,-0.6186518779540753,0.056555861933566466,0.0,0.0,0.0,0.03512444036505583,-0.0027647648977601894,-0.04886558694083296,-0.4345005568207298,-0.2,0.0,0.009148005441847433,0.0,0.04740785649171903,-0.3335324200561165,-0.34109736408771285,-0.0075649440315963545,-0.0075649440315963545,0.10061353605696477,7.817386150360107,0.0,9.288091382785119,1,-0.008883992537165852,-0.006799964914348229,0.003435082912683982,7.822357177734375,1,0.0014913082122802734,0.010974613070525892,0.000810867044247006,-0.34109736408771285,1.5707963267948966,-0.0,0,0.0008855941788075915,0.00161381357018601,-9.074327472532767e-05,0.0400032409997948
15.401166473000103,9.24319092447263,0.0,0.0,-0.04164874284229331,0.15501503999789168,-1.0399999618530273,-0.8843999063101966,-0.5463051252703989,0.0,0.008613264188170433,-0.001919395304697861,-0.03239241001661844,-0.566947690969431,-0.001919395304697861,0.0,0.0,0.0,0.06515593292327307,-0.0005556361438352247,0.005794269545168665,-0.34232012219422764,-0.2,0.0,0.003548131829004555,0.0,-0.005467527133702416,-0.33300882128051823,-0.33355700161468,-0.0005481803341615965,-0.0005481803341615965,0.12139236532806007,7.812480926513672,0.0,9.288091382785119,1,-0.008980091662497714,-0.00715809943319536,0.004105781400342072,7.822357177734375,1,0.002501106262207031,0.011034829094072954,0.0009908818802313731,-0.33355700161468,1.5707963267948966,-0.0,0,0.0008855941788075915,0.00161381357018601,-9.074327472532767e-05,0.03998622200015234
15.50451860200019,9.24324820053451,0.0,0.0,-0.04285218159846693,0.19282097555776403,-1.034999966621399,-0.9613278468974303,-0.36653542951835866,0.0,0.013481284491717815,-0.005903336349215974,0.0671993569594343,-0.4086715014917165,-0.005903336349215974,0.0,0.0,0.0,0.0680627006869725,0.0031627942116366796,0.021614260943881136,-0.16207866339273092,-0.2,0.0,0.0019676604926931727,0.0,-0.007870996841909146,-0.331263492028524,-0.32130523017250234,0.009958261856021444,0.009958261856021444,0.14440521026518635,7.809398651123047,0.0,9.288091382785119,1,-0.008968636450121891,-0.007696715308426304,0.0047507613814323935,7.822357177734375,1,0.003887557983398437,0.01117089338016344,0.0017022672826445598,-0.32130523017250234,1.5707963267948966,-0.0,0,0.0008855941788075915,0.00161381357018601,-9.074327472532767e-05,0.04021801799990499
15.601187398000093,9.242393681479507,0.0,0.0,-0.04117471179325982,0.1606559331125191,-0.8450000286102295,-0.9899643618451095,0.12030815107462138,0.0,0.014480453915894032,0.0032073773621083147,0.1898635345014899,0.06508623760711388,0.0032073773621083147,0.0,0.0,0.0,0.06349416725646982,0.005543779494599622,-0.014418336208020611,0.31892153311673604,-0.19420310709718874,0.0,0.0023310299615260516,0.0,0.0008763474005822632,-0.32882003107573166,-0.3125174937212839,0.016302537354447644,0.016302537354447644,0.15258582726988673,7.8031697273254395,0.0,9.288091382785119,1,-0.009139540261122292,-0.008062289649016844,0.004888103233456501,7.822357177734375,1,0.005140399932861328,0.011302762872142581,0.0019223410467668746,-0.3125174937212839,1.5707963267948966,-0.0,0,0.0008855941788075915,0.00161381357018601,-9.074327472532767e-05,0.03998840799977188
15.701720324000235,9.240980808502123,0.0,0.0,-0.03353461107923228,0.1640227568909201,-0.4000000059604645,-1.0122489011624538,1.2117441479765996,0.0,0.023196859285235405,-0.05356982049820525,0.5137741216133178,1.1096231328221742,-0.05356982049820525,0.0,0.0,0.0,0.04377240275278862,0.008131973665837742,0.0012375271150535092,1.3469475694443767,-0.1315300696970826,-0.0,-0.0016745491897818057,0.0,-0.051895271308423446,-0.32131511529215606,-0.29908266112331594,0.02223245416884012,0.02223245416884012,0.155030564564088,7.800441265106201,0.0,9.288091382785119,1,-0.009422114856599252,-0.008621158838025928,0.004405209321205911,7.822357177734375,1,0.006574773788452148,0.011550134547519403,0.0022810356329608424,-0.29908266112331594,1.5707963267948966,-0.0,0,0.0008855941788075915,0.00161381357018601,-9.074327472532767e-05,0.040074944000025425
15.801544565000313,9.237906858747316,0.0,0.0,-0.02502581396926562,0.13530615739047638,-0.0,-1.0026659311136819,2.1937266925457006,0.0,0.02208835259079933,-0.03196113487686482,0.7570851185043073,2.063387186437532,-0.03196113487686482,0.0,0.0,0.0,0.02143549698026532,0.009028369563048796,-0.00398528067831999,2.2465253627882933,-0.05008241303746505,-0.0,-0.0002829016422269563,0.0,-0.031678233234637865,-0.31381019950858047,-0.29006193283033205,0.023748266678248253,0.023748266678248253,0.1488461955726057,7.796023368835449,0.0,9.288091382785119,1,-0.010036904807560632,-0.009018184216052673,0.0037726827726500987,7.822357177734375,1,0.007415771484375,0.011745233516107635,0.002455844853271767,-0.29006193283033205,1.5707963267948966,-0.29426422575786276,1,0.0025213757565184292,3.35512311212462e-05,0.015927034075175497,0.04004568599975755
15.901654582999981,9.233809953732253,0.0,0.0,-0.018086658354986185,0.13358063735630557,-0.0,-0.9469720253293823,2.2319646913132587,0.0,0.029751963913440704,-0.03767267690001712,0.7385837166382256,2.11045119902415,-0.03767267690001712,0.0,0.0,0.0,0.0007233717898141389,0.009190593828445748,0.026550094588440327,2.1637053598957743,0.07011420601201065,-0.0,-0.0033753329704720226,0.0,-0.034297343929545095,-0.2981022362406316,-0.2768658979562277,0.021236338284404077,0.021236338284404077,0.13412177134179595,7.793405055999756,0.0,9.288091382785119,1,-0.010856285810573142,-0.009654199216819212,0.0027526320314125957,7.822357177734375,1,0.008685636520385741,0.012077152792721361,0.0033636196495468967,-0.2768658979562277,1.5707963267948966,-0.29426422575786276,1,0.01043899668098105,0.0003471527163513594,0.02574426158954622,0.04001351800025077
16.00366102800035,9.231511348067873,0.0,0.0,-0.012034201228104474,0.07064424611584125,-0.0,-0.8768326916785067,2.168360547148382,0.0,0.02740655094385147,-0.02245012507187993,0.6437775528884045,2.0717935549508604,-0.02245012507187993,0.0,0.0,0.0,-0.015907426872375396,0.008709593637567167,-0.005441744955875386,2.0244813691694294,0.14502221736407422,-0.0,-0.0013353071956782147,0.0,-0.021114817876201716,-0.2853613327010729,-0.26870750732846405,0.016653825372608733,0.016653825372608733,0.11442821198228584,7.790168762207031,0.0,9.288091382785119,1,-0.011316006943449253,-0.0101035390610058,0.0021546961979981264,7.822357177734375,1,0.009365558624267578,0.012324746893901076,0.003490733432885791,-0.26870750732846405,1.5707963267948966,-0.29426422575786276,1,0.01533403105763923,0.0007246856205480799,0.027327395811228245,0.03999007399988841
16.10202295399995,9.224906014417773,0.0,0.0,-0.004416919586926832,-0.011833072548595794,-0.0,-0.6953001464035894,1.8358133952389013,0.0,0.027172118425369263,-0.009527893434534047,0.45765499136067217,1.777892784345329,-0.009527893434534047,0.0,0.0,0.0,-0.0391183537015002,0.006983394697950301,-0.03210431614844067,1.6361463075559095,0.2,-0.0,-0.0003598040645722465,0.0,-0.0091680893699618,-0.2635447170511438,-0.2583901385731086,0.005154578478035354,0.005154578478035354,0.06916591033169629,7.788531303405762,0.0,9.288091382785119,1,-0.012637073673469246,-0.010837236677853426,0.0012763209000775677,7.822357177734375,1,0.010147762298583983,0.012720915229353228,0.003703767456478308,-0.2583901385731086,1.5707963267948966,-0.29426422575786276,1,0.021524452310852493,0.0015076628656574315,0.025370605490768527,0.03990983299991058
16.201173212999947,9.222009039304696,0.0,0.0,-0.0017340906490488917,0.00809458178961888,-0.0,-0.548912550563209,1.515605831790405,0.0,0.029537154361605644,-0.02441017005515626,0.3871160385232313,1.4653558381258507,-0.02441017005515626,0.0,0.0,0.0,-0.048680338219512474,0.005179063728233879,0.018923475796164754,1.3157090483581855,0.2,-0.0,-0.0014993131055746288,0.0,-0.022910856949581632,-0.2485348854839926,-0.2529375459927288,-0.004402660508736389,-0.004402660508736389,0.03898996984170982,7.787416934967041,0.0,9.288091382785119,1,-0.013216468696084505,-0.011360326890619053,0.0007152784742399064,7.822357177734375,1,0.010211849212646484,0.012994744987990497,0.0038317049850109457,-0.2529375459927288,1.5707963267948966,-0.29426422575786276,1,0.024796007859080392,0.002148041964115917,0.022192967049133507,0.0400031859999217
16.30186504600033,9.21789469954159,0.0,0.0,0.003554407102090207,-0.08309887036641946,-0.0,-0.30385566965594707,0.971569298541597,0.0,0.03249242529273033,-3.482476486675254e-05,0.15776568017474238,0.9622693564089977,-3.482476486675254e-05,0.0,0.0,0.0,-0.06529316812667202,0.001906567077611777,-0.02972846835103396,0.7714521322270058,0.2,-0.0,-0.0025810993534921283,0.0,0.0025462745886253757,-0.2281145332356589,-0.24782882336616063,-0.019714290130501855,-0.019714290130501855,-0.01415248254739429,7.787889003753662,0.0,9.288091382785119,1,-0.014039336648705714,-0.01218577963189566,0.00010081059784066881,7.822357177734375,1,0.010340452194213867,0.0134118184343157,0.0044383224083805505,-0.24782882336616063,1.5707963267948966,-0.29426422575786276,1,0.027861241435021278,0.0032287416148843204,0.015714407397331775,0.040202813999712816
16.401269045999925,9.21493329145695,0.0,0.0,-0.0005159103612354596,-0.038139552607994474,-0.0,-0.14191844153557856,0.6079852315468435,0.0,0.044984057545661926,-0.046194397914834776,0.11131976281555714,0.5989228478350905,-0.046194397914834776,0.0,0.0,0.0,-0.059128925126887104,-0.00034048396018444794,0.01914418205140002,0.40799317704054616,0.2,-0.0,-0.009468757086601453,0.0,-0.036725640828233326,-0.21589722847169845,-0.24641853221317572,-0.0305213037414771,-0.0305213037414771,-0.05482593063410641,7.787881374359131,0.0,9.288091382785119,1,-0.014631618265633861,-0.012765212933538978,4.136689352337964e-06,7.822357177734375,1,0.010204553604125977,0.013685161156967874,0.005313080973565652,-0.24641853221317572,1.5707963267948966,-0.29426422575786276,1,0.028707416126812223,0.00398954377638345,0.01083604267056491,0.039997260000291135
16.504402102000313,9.212316196184492,0.0,0.0,-0.005462845198703341,-0.032259418352244905,-0.0,0.04171575014404171,0.19120265155449762,0.0,0.0529329739511013,-0.013456467185822487,0.015365620660494968,0.19329516738815158,-0.013456467185822487,0.0,0.0,0.0,-0.05082024872140621,-0.003393840772514973,0.02176577143686579,-0.008663323940999055,0.19984123831968426,-0.0,-0.012953323799713987,0.0,-0.000503143386108501,-0.20158552860534495,-0.2464705878385993,-0.04488505923325414,-0.04488505923325414,-0.08230266818760941,7.788219928741455,0.0,9.288091382785119,1,-0.015155037320125332,-0.013667303363134407,0.0002593824293717552,7.822357177734375,1,0.010241174697875976,0.014097486167655368,0.007005440086046642,-0.2464705878385993,1.5707963267948966,-0.29426422575786276,1,0.02867618275155808,0.00514074909250448,0.003960943781343213,0.04031659200018112
16.601177583000208,9.21173373530902,0.0,0.0,-0.011710340571772448,0.00544272379706881,-0.0,0.11910788813443368,0.008266982736807873,0.0,0.07249613851308823,-0.09121858493775788,0.007301791572329271,0.00668207196430267,-0.09121858493775788,0.0,0.0,0.0,-0.03777610312061008,-0.0050061533114427,0.04668491302532623,-0.18647816329035816,0.1945937311062709,-0.0,-0.02389298591677619,0.0,-0.06732559902098169,-0.19530234329816532,-0.24745002136133593,-0.052147678063170666,-0.052147678063170666,-0.08086782184476596,7.790398120880127,0.0,9.288091382785119,1,-0.015271529495219838,-0.014277897456002941,0.0006681304155366564,7.822357177734375,1,0.009903860092163085,0.014365387554760373,0.008405247671537783,-0.24745002136133593,1.5707963267948966,-0.29426422575786276,1,0.028088522637916103,0.005895336488788695,0.0003612275121115477,0.03991737100022874
16.70172015700018,9.212036854220207,0.0,0.0,-0.028838743872041116,-0.029172664590890164,-0.0,0.16496676851360323,-0.11491042786346324,0.0,0.06277197599411011,0.025986431807803217,-0.05663439728669199,-0.10415371253618329,0.025986431807803217,0.0,0.0,0.0,0.0013537328662045205,-0.005559481103306509,-0.027921098490104043,-0.29523892216436326,0.17981205754973975,-0.0,-0.017801511042778197,0.0,0.043787942850581414,-0.1912880860185786,-0.24941755093172646,-0.05812946491314808,-0.05812946491314808,-0.08124559310973074,7.792627811431885,0.0,9.288091382785119,1,-0.015210905712982382,-0.015192800846508212,0.002180295808451534,7.822357177734375,1,0.00891880989074707,0.014733827461399016,0.009450153570667025,-0.24941755093172646,1.5707963267948966,-0.29426422575786276,1,0.02690800489568178,0.006987570895052717,-0.0031283173518418294,0.0400295190001998
16.801165064000088,9.213799090882429,0.0,0.0,-0.025697033984769604,-0.06584327823999765,-0.0,0.14934892043511894,-0.0931866450127717,0.0,0.07557554543018341,-0.06206459423578724,-0.0869138583965865,-0.07392610713911689,-0.06206459423578724,0.0,0.0,0.0,-0.004774290062267891,-0.00547328093381333,-0.05801654362369029,-0.26330132934445816,0.16969815427213614,0.0,-0.025383903098569093,0.0,-0.03668069113721815,-0.19111355309337918,-0.25084830698066374,-0.059734753887284775,-0.059734753887284775,-0.08263884881263242,7.794808387756348,0.0,9.288091382785119,1,-0.014858458380538054,-0.015791043447600944,0.002782335996883988,7.822357177734375,1,0.008221864700317383,0.014957518661192671,0.010089656904391531,-0.25084830698066374,1.5707963267948966,-0.29426422575786276,1,0.026049551266319415,0.0076876699627908,-0.004070723223290424,0.03999000000021624
16.901692824000293,9.21800101204564,0.0,0.0,-0.04288854054105214,-0.04201794143386668,-0.0,0.10643539446365852,-0.010448066059927166,-0.2800000011920929,0.07735659182071686,-0.816411968331146,-0.04329576487688548,0.00038240091252726705,-0.816411968331146,0.0,0.0,0.0,0.03645037996807634,-0.0035003386248962437,-0.07619693612385495,-0.16883499544555583,0.1578917180350883,0.0,-0.21441395580768585,0.0,-0.6019980125234602,-0.1944296786721682,-0.25254657031523814,-0.0581168916430701,-0.0581168916430701,-0.08608637940507598,7.79659366607666,0.0,9.288091382785119,1,-0.014018074147895732,-0.01665123584229043,0.004349123980077806,0.0,0,0.008221864700317383,0.014957518661192671,0.010089656904391531,-0.25254657031523814,1.5707963267948966,-0.29426422575786276,1,0.025030593265574774,0.008700988433081524,-0.0040393669829777,0.04003531500029567
17.00333234200025,9.221986708659015,0.0,0.0,-0.04564231084097291,0.09659830619767304,-0.0,0.06740473196441768,0.07414519613288682,-0.45399999618530273,0.0730493813753128,-0.8519163349270807,0.11208603599480224,0.04759688440240127,-0.8519163349270807,0.0,0.0,0.0,0.04398083353225887,-0.002153139714635579,0.05427794219576842,-0.08046649207279771,0.15427808246262012,0.0,-0.3162296265363693,0.0,-0.5356867083907114,-0.19844393595175536,-0.2530756677003219,-0.054631731748566725,-0.054631731748566725,-0.08222035476917694,7.797780513763428,0.0,9.288091382785119,1,-0.01322093482522071,-0.017188012106933707,0.0047579240603900855,0.0,0,0.008221864700317383,0.014957518661192671,0.010089656904391531,-0.2530756677003219,1.5707963267948966,-0.29426422575786276,1,0.024713134834524506,0.009361616307159324,-0.0032456973921742016,0.039993869999761955
17.10174000899997,9.227637569777906,0.0,0.0,-0.04308582946373864,0.020453883818384717,-0.0,0.009054050650129182,0.2079460020047611,-0.5400000214576721,0.053812701255083084,-0.45444314602464325,0.071908999145787,0.1961861283446699,-0.45444314602464325,0.0,0.0,0.0,0.04068075392083965,0.000905543396560049,-0.021141297228198665,0.053232223397439736,0.15467150329261403,0.0,-0.3562876336276531,0.0,-0.09815551239699015,-0.20699604928652748,-0.25328222315882726,-0.04628617387229994,-0.04628617387229994,-0.07347947502875116,7.79788875579834,0.0,9.288091382785119,1,-0.012090762601442507,-0.01793916205947077,0.005435346979374478,0.0,0,0.008221864700317383,0.014957518661192671,0.010089656904391531,-0.25328222315882726,1.5707963267948966,-0.29426422575786276,1,0.024589201559421302,0.010346638819404647,-0.001685324548042349,0.04001207399960549
17.201118749000216,9.232530886774011,0.0,0.0,-0.046899273656026585,0.03905011224503763,-0.0,-0.014604593037698772,0.26687909719702974,-0.6480000019073486,0.035246841609478,-0.6135038376903873,0.10466409545783312,0.24858558065391745,-0.6135038376903873,0.0,0.0,0.0,0.05046492904239115,0.002751019863584262,-0.01418893911685292,0.10892402268121776,0.15802926271121695,0.0,-0.40994810611009597,-0.0,-0.20355573158029133,-0.2139773662945048,-0.25322009866565875,-0.03924273237115372,-0.03924273237115372,-0.06471209357653167,7.795529842376709,0.0,9.288091382785119,1,-0.011112099202221516,-0.018392072338113227,0.005543501994485954,0.0,0,0.008221864700317383,0.014957518661192671,0.010089656904391531,-0.25322009866565875,1.5707963267948966,-0.29426422575786276,1,0.024626476255322403,0.01100210299405683,-0.0007222528865244873,0.04002331399988179
17.30159843399997,9.24187513542576,0.0,0.0,-0.0445542175220875,0.0484741527854916,-0.0,-0.028768488002930755,0.31056372475091903,-0.699999988079071,-0.00022960983915254474,-0.5279148266786217,0.12459952136073374,0.28857326608005784,-0.5279148266786217,0.0,0.0,0.0,0.04788579824666218,0.0053521798313731226,-0.004853377022019279,0.14511206270567537,0.16559035224106236,0.0,-0.4198622269439511,-0.0,-0.10805259973467059,-0.22706733568446236,-0.25276235955338006,-0.025695023868917755,-0.025695023868917755,-0.04320853323057928,7.791908264160156,0.0,9.288091382785119,1,-0.009243249471871806,-0.018980770947710123,0.005436074827795417,0.0,0,0.008221864700317383,0.014957518661192671,0.010089656904391531,-0.25276235955338006,1.5707963267948966,-0.29426422575786276,1,0.024901119722689623,0.011995155378553989,0.00029526539840534454,0.039894573999845306
17.40117747100021,9.247179930685798,0.0,0.0,-0.037420684620674785,0.06521384766551638,-0.0,-0.024882902013335435,0.3099046205165564,-0.7099999785423279,-0.04163582995533943,-0.3794569069505192,0.14053787823378128,0.28380067745937265,-0.3794569069505192,0.0,0.0,0.0,0.03272889278150678,0.006507431575314136,0.02591056680765987,0.13915189089905727,0.17085342358427255,-0.0,-0.40101848915219307,-0.0,0.021561582201673875,-0.23684117949563044,-0.2523937189923067,-0.015552539496676232,-0.015552539496676232,-0.026208742692848473,7.779135227203369,0.0,9.288091382785119,1,-0.008182290419864202,-0.0193182456916055,0.00495662093693436,0.0,0,0.008221864700317383,0.014957518661192671,0.010089656904391531,-0.2523937189923067,1.5707963267948966,-0.29426422575786276,1,0.025122304059333623,0.01266257011379704,0.0005830833131053915,0.040004610999858414
17.503997916000117,9.252923776879472,0.0,0.0,-0.026954633434745228,0.0021326536697826707,-0.0,0.005456966125695708,0.25086629651700104,-0.7379999756813049,-0.12146101146936417,-0.266707111150996,0.06466061876920051,0.24239936328343611,-0.266707111150996,0.0,0.0,0.0,0.009117239474373975,0.00725907074827564,-0.014246874830679997,0.07433584447478377,0.17651455538888577,-0.0,-0.36992337852716445,-0.0,0.10321626737616844,-0.25202554398798105,-0.25218150612648105,-0.00015596213849988771,-0.00015596213849988771,-0.002862479083848797,7.766256332397461,0.0,9.288091382785119,1,-0.007033521181129388,-0.01976443951974649,0.003987527027209729,0.0,0,0.008221864700317383,0.014957518661192671,0.010089656904391531,-0.25218150612648105,1.5707963267948966,-0.29426422575786276,1,0.025249631778829027,0.013672256909103118,0.0003240976535743631,0.04017435200012187
17.601253527000154,9.25656138628179,0.0,0.0,-0.015251894113280448,-0.08212411017430195,-0.0,0.026940479440678525,0.2051919809955228,-0.7860000133514404,-0.16814908385276794,-0.31403507049705404,-0.028271330687416878,0.2192004799218072,-0.31403507049705404,0.0,0.0,0.0,-0.01738754810537787,0.007034202579232025,-0.0718491727526569,0.027113772823392317,0.17803381875767696,-0.0,-0.37071055769920347,-0.0,0.056675487202149426,-0.26110125609835144,-0.25243847942273795,0.008662776675613326,0.008662776675613326,0.007988220413445098,7.739457607269287,0.0,9.288091382785119,1,-0.006305999300665732,-0.020023370969481525,0.0031740451998768684,0.0,0,0.008221864700317383,0.014957518661192671,0.010089656904391531,-0.25243847942273795,1.5707963267948966,-0.29426422575786276,1,0.025095447801074887,0.01434243397801193,-0.0001729601459572361,0.03999857400003748
17.701607286000126,9.25946737860947,0.0,0.0,-0.004697756684968737,-0.07111495190694621,-0.0,0.06779516031856346,0.11203770954064915,-0.8320000171661377,-0.24618926644325256,-0.23164385480224903,-0.04077401056130879,0.1262824802044544,-0.23164385480224903,0.0,0.0,0.0,-0.042951945268423504,0.005480752352446569,-0.034140135680328046,-0.06405834028341185,0.1760616541990674,-0.0,-0.35148645043373106,-0.0,0.11984259563148203,-0.27384215963791014,-0.2532608980896852,0.020581261548224816,0.020581261548224816,0.02614015484187602,7.718110084533691,0.0,9.288091382785119,1,-0.005724800835129784,-0.020377657310868987,0.0018810899753829867,0.0,0,0.008221864700317383,0.014957518661192671,0.010089656904391531,-0.2532608980896852,1.5707963267948966,-0.29426422575786276,1,0.024601996600906527,0.015333579694070665,-0.0012578433779645804,0.04000655599975289
17.801221823000105,9.262045042565774,0.0,0.0,-0.0035823719917008716,-0.07844672109289104,-0.0,0.09551789703767907,0.04575664950856085,-0.8539999723434448,-0.2951980233192444,-0.2547650092213865,-0.06443474959837814,0.06399782862464497,-0.2547650092213865,0.0,0.0,0.0,-0.04609416348134194,0.003967756062806501,-0.037305373519408255,-0.1263197343873516,0.17203943950215478,-0.0,-0.33528116941452024,-0.0,0.08051616019313372,-0.2813470754214862,-0.2539592334856099,0.027387841935876178,0.027387841935876178,0.036220577834121526,7.676802158355713,0.0,9.288091382785119,1,-0.005209268043869031,-0.02059118764421182,0.001266191204860915,0.0,0,0.008221864700317383,0.014957518661192671,0.010089656904391531,-0.2539592334856099,1.5707963267948966,-0.29426422575786276,1,0.024182995363351723,0.015981375623908153,-0.002064535034740627,0.040038407999873016
17.901655897000182,9.266263020490664,0.0,0.0,0.00014650263127589935,-0.036594688023332066,-0.0,0.1290967452193166,-0.04059203778716926,-0.9940000176429749,-0.3799267113208771,-0.6336285404197772,-0.04567344797182773,-0.030013678108567865,-0.6336285404197772,0.0,0.0,0.0,-0.05509138177457088,0.0007487585303301515,0.015949370946468432,-0.20305314365331997,0.1624631469276684,-0.0,-0.36844398379325866,-0.0,-0.2651845566265185,-0.2898991887562583,-0.2557644199201126,0.034134768836145746,0.034134768836145746,0.0465463410443279,7.643407344818115,0.0,9.288091382785119,1,-0.004365672458891012,-0.020870911507578156,0.00034154942748557934,0.0,0,0.008221864700317383,0.014957518661192671,0.010089656904391531,-0.2557644199201126,1.5707963267948966,-0.29426422575786276,1,0.023099883502650086,0.016920976500445644,-0.003220998262560929,0.040035648999946716
18.003603378000207,9.26879044186854,0.0,0.0,0.0022534364756372632,-0.04089801337340136,-0.0,0.14304266484429515,-0.0810279859342762,-1.0160000324249268,-0.42278292775154114,-0.3122172119899741,-0.060157570640102936,-0.0679650549704567,-0.3122172119899741,0.0,0.0,0.0,-0.05969054507131583,-0.001471493262004934,0.018056487299629775,-0.23549141313900193,0.15449820386307767,-0.0,-0.35593026280403134,-0.0,0.04371305081405722,-0.29356438018544617,-0.25710393076838944,0.03646044941705684,0.03646044941705684,0.050618290178877375,7.5885772705078125,0.0,9.288091382785119,1,-0.003860188183315927,-0.021029974365263722,1.1533082709713889e-05,0.0,0,0.008221864700317383,0.014957518661192671,0.010089656904391531,-0.25710393076838944,1.5707963267948966,-0.29426422575786276,1,0.02229617699368399,0.01752073493697253,-0.0038157985131804257,0.04000657400001728
18.101637304000178,9.270530938142743,0.0,0.0,0.008156330886506372,-0.08923670203883938,-0.0,0.1508344075239967,-0.1144264579916531,-1.0180000066757202,-0.49860861897468567,-0.16047116877656062,-0.11559669907968845,-0.08771548575459241,-0.16047116877656062,0.0,0.0,0.0,-0.07331786164819314,-0.005027006534510658,-0.013345956348678939,-0.25511980847985355,0.14082605651604768,-0.0,-0.3116348326206207,-0.0,0.15116366384406008,-0.29548424236264026,-0.25934336167939065,0.0361408806832495,0.0361408806832495,0.04462273799281191,7.548340797424316,0.0,9.288091382785119,1,-0.0035120889284751657,-0.021246233418694256,-0.0004116475155029009,0.0,0,0.008221864700317383,0.014957518661192671,0.010089656904391531,-0.25934336167939065,1.5707963267948966,-0.29426422575786276,1,0.020952518447083266,0.01837641659392245,-0.004458076826033327,0.040026443999977346
18.201241008000125,9.271205133383948,0.0,0.0,0.0005030905169795333,-0.06609054132926566,-0.0,0.15196388880487677,-0.1273359341528688,-1.0180000066757202,-0.5337386727333069,-0.18007543535741946,-0.09667585659667277,-0.10600084212438447,-0.18007543535741946,0.0,0.0,0.0,-0.05617788568494954,-0.007125941852596157,-0.005277546770654614,-0.2586837486644199,0.13135606064463531,0.0,-0.290556800365448,-0.0,0.11048136500802855,-0.294960643587042,-0.26066986160504235,0.03429078198199953,0.03429078198199953,0.03881757784568907,7.482371807098389,0.0,9.288091382785119,1,-0.0033772498802342454,-0.021382256841178466,-0.0002728053456757246,0.0,0,0.008221864700317383,0.014957518661192671,0.010089656904391531,-0.26066986160504235,1.5707963267948966,-0.29426422575786276,1,0.020156618491692247,0.018919141141095892,-0.004695392948102219,0.0400201659999766
18.30208611900025,9.274223986603925,0.0,0.0,-0.003560301233734832,0.018761330776541896,-0.0,0.14939887008711764,-0.1363936982235191,-1.0219999551773071,-0.6000469923019409,-0.12813100628352728,-0.01732901299134504,-0.13658306540834778,-0.12813100628352728,0.0,0.0,0.0,-0.04637622430462064,-0.010631152273542364,0.0733620345791123,-0.254339668885652,0.11788861761758082,-0.0,-0.2531717777252197,-0.0,0.12504077144169243,-0.2912954521578537,-0.2628959351856868,0.028399516972166694,0.028399516972166694,0.029550442533356563,7.4347968101501465,0.0,9.288091382785119,1,-0.002773479236238785,-0.021559817519213622,-0.0003071064349281714,0.0,0,0.008221864700317383,0.014957518661192671,0.010089656904391531,-0.2628959351856868,1.5707963267948966,-0.29426422575786276,1,0.018820974343305562,0.01968930798819732,-0.004720352646954331,0.04047613000011552
18.40151373000026,9.275964558421668,0.0,0.0,0.0035161199523628117,-0.12880249888221632,-0.0,0.12812719632633887,-0.0976873344763754,-1.0219999551773071,-0.634097695350647,-0.09391395093264979,-0.14984198994463652,-0.06066528731353723,-0.09391395093264979,0.0,0.0,0.0,-0.06112060083270584,-0.012546797531575369,-0.056904897969731486,-0.20768050258476736,0.11004173562809366,0.0,-0.2327413558959961,-0.0,0.1388274049633463,-0.28728119487826653,-0.2641823297919771,0.023098865086289333,0.023098865086289333,0.019538690286506667,7.358348369598389,0.0,9.288091382785119,1,-0.002425364872690139,-0.021660271825158606,-0.00018033463738200518,0.0,0,0.008221864700317383,0.014957518661192671,0.010089656904391531,-0.2641823297919771,1.5707963267948966,-0.29426422575786276,1,0.018049137579531405,0.020175192912271628,-0.004497362613085691,0.039915647999805515
18.504218562999995,9.280662794680621,0.0,0.0,-0.0009485978767731704,-0.045809645383893545,-0.0,0.10612590852755767,-0.05754718024846067,-1.0219999551773071,-0.6794668436050415,-0.11343789946048133,-0.05928457479674918,-0.043537808349933656,-0.11343789946048133,0.0,0.0,0.0,-0.049106756039008916,-0.015299551142715874,0.01738309454407271,-0.1577119720460837,0.10015394442457144,0.0,-0.20551986694335936,-0.0,0.09208196748287803,-0.27977627909469094,-0.2650434025048598,0.014732876589831356,0.014732876589831356,0.0030912187161369273,7.304328918457031,0.0,9.288091382785119,1,-0.0014857176208995073,-0.021768838147569494,-1.5294853308221574e-05,0.0,0,0.008221864700317383,0.014957518661192671,0.010089656904391531,-0.2650434025048598,1.5707963267948966,-0.29426422575786276,1,0.017532493951801776,0.020884625152840713,-0.003978470598031961,0.04013044500015894
18.60121667400017,9.284459033116981,0.0,0.0,-0.013260913912219136,0.08161787793260261,-0.0,0.09996110115585609,-0.04779142352535403,-1.0219999551773071,-0.7071648836135864,-0.11416305662528824,0.06620739533157637,-0.06754316371187646,-0.11416305662528824,0.0,0.0,0.0,-0.019469681351807495,-0.016608155314942325,0.11661948369471385,-0.14307152462965375,0.09513732751326225,-0.0,-0.18890104293823243,-0.0,0.07473798631294419,-0.2754129559647054,-0.26565741886874206,0.00975553709596344,0.00975553709596344,0.00033133282456236646,7.2198805809021,0.0,9.288091382785119,1,-0.0007264699336275272,-0.021805014623310803,0.00042071548480669566,0.0,0,0.008221864700317383,0.014957518661192671,0.010089656904391531,-0.26565741886874206,1.5707963267948966,-0.29426422575786276,1,0.017164084133472424,0.021344333515295494,-0.0035798276882089922,0.040163370999835024
18.702633804000016,9.29210207886986,0.0,0.0,-0.01615997139684947,0.07166935588063902,-0.0,0.08935695590126679,-0.029246062853186625,-1.0219999551773071,-0.7392934560775757,-0.09149099766125299,0.06142977772646972,-0.047097889265175705,-0.09149099766125299,0.0,0.0,0.0,-0.008626607354280471,-0.01808360370885825,0.0975202710061989,-0.11846582545795059,0.0890643611854492,-0.0,-0.16962389945983886,-0.0,0.07813290179858587,-0.2684316389567276,-0.2666571792551764,0.001774459701551212,0.001774459701551212,-0.011846407404748814,7.161132335662842,0.0,9.288091382785119,1,0.0008021392169482056,-0.021782302772564342,0.0008990069977300896,0.0,0,0.008221864700317383,0.014957518661192671,0.010089656904391531,-0.2666571792551764,1.5707963267948966,-0.29426422575786276,1,0.016564227901611817,0.022013878537968296,-0.003069253019199955,0.04060322199984512
18.801265378000153,9.295242613336827,0.0,0.0,-0.008762998904390765,-0.10294300148087462,-0.0,0.07228640209211157,0.006521721590572888,-0.9959999918937683,-0.7423309087753296,-0.04975055841206241,-0.09758243135063534,0.033428483335246326,-0.04975055841206241,0.0,0.0,0.0,-0.02279839155623051,-0.018598224462192194,-0.06210853581664764,-0.07941484809665797,0.08586842238987827,0.0,-0.15220144987106324,-0.0,0.10245089145900083,-0.2644173816771409,-0.26676917431608094,-0.0023517926389402533,-0.0023517926389402533,-0.018679022206868942,7.068377494812012,0.0,9.288091382785119,1,0.001430246110341571,-0.021730724901592238,0.0011745746340278533,0.0,0,0.008221864700317383,0.014957518661192671,0.010089656904391531,-0.26676917431608094,1.5707963267948966,-0.29426422575786276,1,0.016497030865069096,0.022454382156350455,-0.002762669155061608,0.04000598099992203
18.901735248000023,9.301449462102806,0.0,0.0,-0.016624977820022216,-0.04030367741282558,-0.0,0.07275583628928563,0.0031869714377925893,-0.9179999828338623,-0.7594417333602905,0.176849126347927,-0.0380369274678323,0.01370165496388219,0.176849126347927,0.0,0.0,0.0,-0.0017415501933335598,-0.019202615926465823,-0.019928606651305622,-0.07851725228736553,0.08157418332989341,0.0,-0.09513494968414306,-0.0,0.27198407603207003,-0.25970499269675607,-0.26684039337354226,-0.007135400676786308,-0.007135400676786308,-0.021248981793630294,7.004917621612549,0.0,9.288091382785119,1,0.002671615863537369,-0.021593731893369505,0.001505524485567393,0.0,0,0.008221864700317383,0.014957518661192671,0.010089656904391531,-0.26684039337354226,1.5707963267948966,-0.29426422575786276,1,0.0164542994305923,0.02311358113434353,-0.0025017044062709006,0.04003235200025301
19.00331926700028,9.304876924217952,0.0,0.0,-0.005718748888865588,-0.03151034322110438,-0.0,0.07290178690629645,0.0010282578749242666,-0.9459999799728394,-0.7742298245429993,-0.2140317339578372,-0.03012293617594049,0.009304179722541817,-0.2140317339578372,0.0,0.0,0.0,-0.024744816867868624,-0.02004784241047139,0.0127111456293605,-0.07783758788026537,0.07882104054000387,-0.0,-0.10306209325790405,-0.0,-0.11096964069993313,-0.257610597594363,-0.2669568825867384,-0.009346284992375331,-0.009346284992375331,-0.018817892319236827,6.911169528961182,0.0,9.288091382785119,1,0.003357108286566657,-0.0214664222757397,0.0011429210694580832,0.0,0,0.008221864700317383,0.014957518661192671,0.010089656904391531,-0.2669568825867384,1.5707963267948966,-0.29426422575786276,1,0.016384405902674624,0.023550606398138788,-0.0024139471582739452,0.03997377799987589
19.101713933000156,9.3085660409013,0.0,0.0,-0.005916856862683558,-0.040178569066951386,-0.0,0.08365484474289009,-0.028466783358494972,-1.0180000066757202,-0.754383385181427,-0.24515570351508315,-0.046283473194531986,-0.016808190744345683,-0.24515570351508315,0.0,0.0,0.0,-0.02217221051507359,-0.02068889488289975,0.0019307413694556195,-0.10190235045377569,0.07338239308974229,-0.0,-0.15816997289657592,-0.0,-0.08698573061850724,-0.2558652683423688,-0.2680643317621735,-0.012199063419804812,-0.012199063419804812,-0.0253935060984253,6.849603652954102,0.0,9.288091382785119,1,0.004094931623236065,-0.021236083610977542,0.0011460176182062909,0.0,0,0.008221864700317383,0.014957518661192671,0.010089656904391531,-0.2680643317621735,1.5707963267948966,-0.29426422575786276,1,0.015719936397413568,0.02418882126834077,-0.002573163129125922,0.04003220300000976
19.201154117999977,9.31150858465484,0.0,0.0,-0.015906592485018904,0.07841794979869297,-0.0,0.10219365735334601,-0.07465988862006938,-1.0219999551773071,-0.7454416155815125,-0.26466960495035324,0.05575305145127498,-0.09281740716731415,-0.26466960495035324,0.0,0.0,0.0,0.0016876062596205043,-0.021122917167311215,0.09673168695618989,-0.14361672804503375,0.06878226482759438,-0.0,-0.1659350037574768,-0.0,-0.09873460119287646,-0.2562143341927676,-0.2690279117661123,-0.01281357757334467,-0.01281357757334467,-0.02261850500906459,6.7538886070251465,0.0,9.288091382785119,1,0.004683440373944236,-0.02105344837474113,0.0012305092701509453,0.0,0,0.008221864700317383,0.014957518661192671,0.010089656904391531,-0.2690279117661123,1.5707963267948966,-0.29426422575786276,1,0.01514178839505028,0.02459619177020179,-0.0028246537414668505,0.0400442780000958
19.301563655000336,9.321202187621177,0.0,0.0,-0.010177626041902473,0.03446034700951762,-0.0,0.1114272549305282,-0.10565873645455585,-1.0180000066757202,-0.7505967617034912,-0.13004587218030872,0.004918674369304536,-0.11102743241036607,-0.13004587218030872,0.0,0.0,0.0,-0.005650304359953052,-0.02123228494228378,0.06001091573206552,-0.16613457311281818,0.060354171565205485,-0.0,-0.16044194698333739,-0.0,0.03039607480302866,-0.2590068609959584,-0.27099706031856374,-0.011990199322605477,-0.011990199322605477,-0.014993910848917972,6.694633483886719,0.0,9.288091382785119,1,0.006622160967211599,-0.020693419735096686,0.0013253125623675901,0.0,0,0.008221864700317383,0.014957518661192671,0.010089656904391531,-0.27099706031856374,1.5707963267948966,-0.29426422575786276,1,0.013960299263579412,0.025171034213850665,-0.0032197935981828686,0.03989077799997176
19.401128100000278,9.324960702597847,0.0,0.0,-0.013846460975221346,-0.08172192117801293,-0.0,0.11609877668618139,-0.12396843923256459,-1.0119999647140503,-0.7308689951896667,-0.1940954754989357,-0.11204840445841341,-0.09742587636304442,-0.1940954754989357,0.0,0.0,0.0,0.005394283541009988,-0.02081490833311585,-0.067746763705064,-0.17790293102320728,0.05376209887318961,0.0,-0.171078622341156,-0.0,-0.023016853157779685,-0.26232298657474784,-0.27226457507353974,-0.009941588498791898,-0.009941588498791898,-0.010637975271358716,6.603939533233643,0.0,9.288091382785119,1,0.007373863962545713,-0.0204062766429045,0.001637898769232892,0.0,0,0.008221864700317383,0.014957518661192671,0.010089656904391531,-0.27226457507353974,1.5707963267948966,-0.29426422575786276,1,0.013199790410593814,0.025527659432105915,-0.0034936418034307256,0.04004818499970497
19.503866933000154,9.333283900704872,0.0,0.0,-0.02051617494094933,0.09647574938192217,-0.0,0.12685345031741957,-0.1602992962915214,-0.9520000219345093,-0.7062998414039612,-0.2025924924299295,0.049451173013538796,-0.18043839973227838,-0.2025924924299295,0.0,0.0,0.0,0.02497469287094207,-0.020447476119945213,0.09022440230031159,-0.20379687629135024,0.04321873413954394,-0.0,-0.14742010831832886,-0.0,-0.05517238411160064,-0.26912977065752575,-0.2742836830918745,-0.005153912434348928,-0.005153912434348928,0.0015790641887477638,6.546816349029541,0.0,9.288091382785119,1,0.009038503583950686,-0.019898464216413836,0.0016959188146693062,0.0,0,0.008221864700317383,0.014957518661192671,0.010089656904391531,-0.2742836830918745,1.5707963267948966,-0.29426422575786276,1,0.011988325599592953,0.02602333178699879,-0.0037931508379677324,0.04021542500004216
19.601145303000067,9.33891368388832,0.0,0.0,-0.0066569888525867815,-0.12366197117877654,-0.0,0.11375698626401941,-0.1395244594442437,-0.8859999775886536,-0.705409049987793,-0.025454653113135453,-0.1569585111279215,-0.10061502712584791,-0.025454653113135453,0.0,0.0,0.0,-0.002383264385103737,-0.019999222100103235,-0.10266515462927076,-0.17599771821251575,0.036392170216102485,0.0,-0.10835455656051636,-0.0,0.08289990344738091,-0.27471482426390725,-0.27555310305396347,-0.0008382787900562683,-0.0008382787900562683,0.00997179361716434,6.459712028503418,0.0,9.288091382785119,1,0.010164460220640237,-0.019503264030044123,0.0015985129635881325,0.0,0,0.008221864700317383,0.014957518661192671,0.010089656904391531,-0.27555310305396347,1.5707963267948966,-0.29426422575786276,1,0.011226673622339577,0.02632764775009344,-0.0037962979322843865,0.0402478890000566
19.701782396,9.348352637697102,0.0,0.0,-0.013802067351341641,-0.021650668683651633,-0.0,0.11485793160390499,-0.1533566491915387,-0.8859999775886536,-0.6858372688293457,-0.14161039749780432,-0.0628658964843862,-0.14154466561803153,-0.14161039749780432,0.0,0.0,0.0,0.018656240522734787,-0.01952962357259929,-0.02218848020074531,-0.18020484533144993,0.026678617929795322,0.0,-0.1200976252555847,-0.0,-0.021512772242219615,-0.28413960222467693,-0.27771989753242715,0.006419704692249617,0.006419704692249617,0.02013275046362345,6.404613971710205,0.0,9.288091382785119,1,0.012052250982396729,-0.018822041544314532,0.0014478325390919749,0.0,0,0.008221864700317383,0.014957518661192671,0.010089656904391531,-0.27771989753242715,1.5707963267948966,-0.29426422575786276,1,0.009926596935261366,0.026743147099339518,-0.0037231057631731362,0.040235203999600344
19.801261229000374,9.354737883404695,0.0,0.0,1.0670186039302837e-05,-0.0549816735997312,-0.0,0.10445908048135479,-0.13779078996611202,-0.8759999871253967,-0.6930566430091858,-0.042756219013658794,-0.09084497598883724,-0.11728800692696659,-0.042756219013658794,0.0,0.0,0.0,-0.008990394720177814,-0.0196211399111895,-0.027536574589651308,-0.15860149291478334,0.020810822096619254,0.0,-0.10976600646972656,-0.0,0.06700978745606777,-0.2912954521578537,-0.2793627480635531,0.011932704094300473,0.011932704094300473,0.029698768027867115,6.322981834411621,0.0,9.288091382785119,1,0.01332930012391529,-0.01830054943787261,0.0008953764453703433,0.0,0,0.008221864700317383,0.014957518661192671,0.010089656904391531,-0.2793627480635531,1.5707963267948966,-0.29426422575786276,1,0.008940886616585797,0.0269881553195317,-0.003561549143300592,0.0400072409997847
19.902910174000226,9.363897800935602,0.0,0.0,-0.006221985387311987,0.03912319722455279,-0.0,0.09457837875776949,-0.12491642458902694,-0.8659999966621399,-0.666832447052002,-0.11245587173138837,0.0028918632240137535,-0.13086777609584,-0.11245587173138837,0.0,0.0,0.0,0.010015403959051813,-0.019555729878311202,0.047708251106610505,-0.13813745475419506,0.013158186112072227,-0.0,-0.11950052976608276,-0.0,0.007044658034694395,-0.3022910264454177,-0.28142389287299574,0.02086713357242198,0.02086713357242198,0.04707601456450907,6.270072937011719,0.0,9.288091382785119,1,0.015161283630096634,-0.017422332021235915,0.000591519348850844,0.0,0,0.008221864700317383,0.014957518661192671,0.010089656904391531,-0.28142389287299574,1.5707963267948966,-0.29426422575786276,1,0.007704199730920213,0.02731147490726861,-0.003227048041417088,0.041284704000190686
20.003515247999985,9.369780264588115,0.0,0.0,0.004876389428875638,-0.05302446861474805,-0.0,0.08216264741477193,-0.1030981377852317,-0.8240000009536743,-0.6655044555664062,0.005563088893523985,-0.07968750474654074,-0.08420642418443543,0.005563088893523985,0.0,0.0,0.0,-0.011375481419989047,-0.019781205422268827,-0.02258825764701175,-0.11176135338565525,0.008705976161929566,0.0,-0.09509732723236083,-0.0,0.10066041612588482,-0.3090978105281956,-0.2828024639896255,0.02629534653857002,0.02629534653857002,0.05576629106988534,6.19023323059082,0.0,9.288091382785119,1,0.016337776360599323,-0.016778278707549873,0.0001462184031038949,0.0,0,0.008221864700317383,0.014957518661192671,0.010089656904391531,-0.2828024639896255,1.5707963267948966,-0.29426422575786276,1,0.0068770570609423595,0.027499828850281478,-0.003014853671749747,0.04000775900021836
20.101663377000023,9.372181299058413,0.0,0.0,0.006852317168809827,-0.014868451212237068,-0.0,0.06052856193483561,-0.05968364558662085,-0.7860000133514404,-0.6495351195335388,-0.08671859973300212,-0.03099089848669825,-0.05312977134288462,-0.08671859973300212,0.0,0.0,0.0,-0.013745867377896938,-0.020474421348970255,0.018960924589133548,-0.0638458851462363,0.004206494028336746,0.0,-0.08187893629074096,-0.0,-0.004839663442261171,-0.3179989897133666,-0.28390260537081907,0.03409638434254747,0.03409638434254747,0.06571220565971365,6.136346340179443,0.0,9.288091382785119,1,0.01681798325465884,-0.015776603730781963,-0.0004371838904747494,0.0,0,0.008221864700317383,0.014957518661192671,0.010089656904391531,-0.28390260537081907,1.5707963267948966,-0.29426422575786276,1,0.006216972232226214,0.027756012632633387,-0.0024652798146768493,0.04002207399980762
20.201233099000092,9.37230180880803,0.0,0.0,0.005166438203284858,0.03601115288558032,-0.0,0.053981282740151564,-0.04662511928056256,-0.7720000147819519,-0.6561550498008728,-0.03429134411619856,0.021490301448669126,-0.054853184262362166,-0.03429134411619856,0.0,0.0,0.0,-0.009062524758197731,-0.021088258594054055,0.06585102234008143,-0.048828837956444375,0.0022334756093545446,0.0,-0.06950697898864745,-0.0,0.035215634872448894,-0.322536845768552,-0.28425669353173005,0.03828015223682213,0.03828015223682213,0.07199360628760437,6.05656099319458,0.0,9.288091382785119,1,0.016842085204582347,-0.01510278065092011,-0.0006921957859218033,0.0,0,0.008221864700317383,0.014957518661192671,0.010089656904391531,-0.28425669353173005,1.5707963267948966,-0.29426422575786276,1,0.006004519335679625,0.02791734154718428,-0.0021355044865506915,0.039980796000236296
20.301700858999993,9.374076875631093,0.0,0.0,0.0059562140462427315,0.007707215846362859,-0.0,0.03975948567149405,-0.016203997764670332,-0.7099999785423279,-0.6601258516311646,0.16346312096130172,0.002839412787749636,-0.017717461857744515,0.16346312096130172,0.0,0.0,0.0,-0.008077090722962026,-0.021817587236901543,0.037433256753017355,-0.017023751080892772,0.0008450161778534974,0.0,-0.029924476146697996,-0.0,0.19338759710799971,-0.326900168898538,-0.2850582476922792,0.041841921206258625,0.041841921206258625,0.07300275427112576,6.00419807434082,0.0,9.288091382785119,1,0.017197098569194935,-0.014075084877225578,-0.0008372045198002731,0.0,0,0.008221864700317383,0.014957518661192671,0.010089656904391531,-0.2850582476922792,1.5707963267948966,-0.29426422575786276,1,0.0055235868393501255,0.028142826098076026,-0.0016449959390651774,0.039827665999837336
20.40121308100015,9.375122400322448,0.0,0.0,0.010652331159251273,-0.03804079359814363,-0.0,0.025246824738829846,0.016894623769872087,-0.6840000152587891,-0.6632916927337646,0.10144792607926327,-0.03175439109497731,0.02691075874235652,0.10144792607926327,0.0,0.0,0.0,-0.016832841953852724,-0.022394408252727403,0.0011184679324303802,0.015954448061737188,0.0009688620043083083,0.0,-0.012424993515014648,-0.0,0.11387291959427792,-0.3277728335245351,-0.28506876332172487,0.04270407020281031,0.04270407020281031,0.07275904719138725,5.924465179443359,0.0,9.288091382785119,1,0.01740620350746589,-0.01338281492665469,-0.001022349218765711,0.0,0,0.008221864700317383,0.014957518661192671,0.010089656904391531,-0.28506876332172487,1.5707963267948966,-0.29426422575786276,1,0.005517277461682735,0.028289524632706273,-0.0013079555093149873,0.040003962000355386
20.503996692000328,9.37319085303027,0.0,0.0,0.0053657827782196904,-0.06030010030234632,-0.0,0.021408189494926066,0.02743370888370642,-0.6840000152587891,-0.6604151725769043,-0.0012725039634474949,-0.05015064332474127,0.043285372283296375,-0.0012725039634474949,0.0,0.0,0.0,-0.00323672320971317,-0.022631724539125903,-0.03448054845082086,0.025577667536104878,0.001868296693332353,0.0,-0.014150905609130859,-0.0,0.012878401645683364,-0.3258529713473415,-0.28508915521831174,0.040763816129029795,0.040763816129029795,0.06573584230224952,5.87000036239624,0.0,9.288091382785119,1,0.017019894049030173,-0.012353866104940601,-0.000771482988466777,0.0,0,0.008221864700317383,0.014957518661192671,0.010089656904391531,-0.28508915521831174,1.5707963267948966,-0.29426422575786276,1,0.005505042323730613,0.028509378501317642,-0.0009800188137108804,0.0400817590002589
20.601161562000016,9.372321558096033,0.0,0.0,0.001903665388049587,0.027712872348460916,-0.0,0.023600805001909538,0.024252680866081146,-0.6899999976158142,-0.6616358160972595,-0.005723819001317793,0.03341450120488984,0.015481179936377052,-0.005723819001317793,0.0,0.0,0.0,0.005795192710267302,-0.02263974365166734,0.04449799319100172,0.021441019267653655,0.0028164552917865765,-0.0,-0.017018508911132813,-0.0,0.01129468990981502,-0.32271137869375144,-0.28504510984965453,0.03766626884409696,0.03766626884409696,0.05998233885804118,5.790099143981934,0.0,9.288091382785119,1,0.016846035062182806,-0.011678455787687744,-0.0006297353817785203,0.0,0,0.008221864700317383,0.014957518661192671,0.010089656904391531,-0.28504510984965453,1.5707963267948966,-0.29426422575786276,1,0.005531469544924938,0.028656661165776934,-0.0008414078598588522,0.03998433300012039
20.701680173000113,9.37126935497909,0.0,0.0,-0.0005063238672092401,-0.044056949346182976,-0.0,0.014112946810248455,0.04889059329374653,-0.6800000071525574,-0.6686068773269653,0.051362782691003764,-0.028561480392033184,0.059292046145517446,0.051362782691003764,0.0,0.0,0.0,0.014190069536663573,-0.021583790167641934,-0.03668448253473794,0.043965244378303084,0.004924586401686129,0.0,-0.006835877895355225,-0.0,0.05819866058635899,-0.31607912753617295,-0.2845333764380605,0.03154575109811253,0.03154575109811253,0.05009220614051803,5.739297866821289,0.0,9.288091382785119,1,0.016635594438794143,-0.010678252985878186,-1.3633712550847138e-05,0.0,0,0.008221864700317383,0.014957518661192671,0.010089656904391531,-0.2845333764380605,1.5707963267948966,-0.29426422575786276,1,0.005838509591881369,0.028888483628545465,-0.0006298444200406161,0.04004187099963019
20.801205377000315,9.37129164432258,0.0,0.0,-0.013604682704463342,0.08387224676622806,-0.0,0.019249383415771947,0.03904284469721351,-0.6480000019073486,-0.6637533903121948,0.014688076180092968,0.09146167128899255,0.013916184271921057,0.014688076180092968,0.0,0.0,0.0,0.04578613735695388,-0.020295764582916643,0.05834233421731765,0.03284729855965117,0.0061676010299328305,0.0,0.0046520233154296875,-0.0,0.01003605286466328,-0.31014500807939216,-0.28467669720708716,0.025468310872304833,0.025468310872304833,0.03849761815979463,5.6618828773498535,0.0,9.288091382785119,1,0.016640052307492326,-0.010012882513997923,0.0005800281188394693,0.0,0,0.008221864700317383,0.014957518661192671,0.010089656904391531,-0.28467669720708716,1.5707963267948966,-0.29426422575786276,1,0.005752517130465362,0.029042445550257968,-0.000614989010564488,0.04004340699975728
20.901581636000174,9.37111458547574,0.0,0.0,-0.01083290692595339,0.06898746772121081,-0.0,0.018314428875934527,0.04281861968812032,-0.6240000128746033,-0.6734219789505005,0.08659977944168579,0.07825161293823707,0.021665409461750742,0.08659977944168579,0.0,0.0,0.0,0.04250431207902287,-0.018276158470165452,0.04472352132570114,0.03457057534085395,0.008226873065920341,-0.0,0.02965317964553833,-0.0,0.056946599796147454,-0.30002209841782523,-0.2853787632039785,0.014643335213846864,0.014643335213846864,0.022894291073598236,5.609487533569336,0.0,9.288091382785119,1,0.016604640538124115,-0.00901902549197758,0.000901619882001378,0.0,0,0.008221864700317383,0.014957518661192671,0.010089656904391531,-0.2853787632039785,1.5707963267948966,-0.29426422575786276,1,0.005331277532330569,0.029262464276438884,-0.0005654150506285864,0.03996259299992744
21.00359154300031,9.37363147559852,0.0,0.0,-0.02263038347225242,0.05027201194049549,-0.0,0.023861931476753973,0.030352407526204342,-0.5199999809265137,-0.6693395376205444,0.3987394800551817,0.05679348315507712,0.014934660970242342,0.3987394800551817,0.0,0.0,0.0,0.0729186558442432,-0.015734375877001362,-0.006973012016445915,0.02149725303791405,0.008797545581740751,0.0,0.08960373401641845,-0.0,0.30913574603876326,-0.29338984726024675,-0.2860395194371617,0.007350327823084868,0.007350327823084868,0.013257587684946583,5.532984733581543,0.0,9.288091382785119,1,0.017108018562680273,-0.008340376846078301,0.001746818376710699,0.0,0,0.008221864700317383,0.014957518661192671,0.010089656904391531,-0.2860395194371617,1.5707963267948966,-0.29426422575786276,1,0.004934823792420628,0.029396593136921764,-0.0006980067989911246,0.04001409300008163
21.10175146900019,9.379991071302342,0.0,0.0,-0.0337794885108672,0.16017150990318862,-0.0,0.03083277923983913,0.014490878613744259,-0.2680000066757202,-0.675115168094635,0.5458723163367776,0.15771910370683584,-0.03145762981500502,0.5458723163367776,0.0,0.0,0.0,0.10483641095758328,-0.011049215379537495,0.06628296451911146,0.004872081752670582,0.009507760986500541,0.0,0.24426909685134887,-0.0,0.30160321948542873,-0.28413960222467693,-0.28709542161720986,-0.0029558193925329768,-0.0029558193925329768,0.0014701204071905895,5.482457160949707,0.0,9.288091382785119,1,0.018379937703444683,-0.0072596757430235795,0.002753163600340465,0.0,0,0.008221864700317383,0.014957518661192671,0.010089656904391531,-0.28709542161720986,1.5707963267948966,-0.29426422575786276,1,0.004301282484391744,0.029576322962924707,-0.0008302435926270598,0.04012031399997795
21.201156321000326,9.382425834467847,0.0,0.0,-0.023916930360938976,0.009313354192479532,-0.0,0.021659818548392946,0.03472994844168947,0.0,-0.6754993796348572,0.880687968374409,0.018780428487614634,0.030662736193930538,0.880687968374409,0.0,0.0,0.0,0.08650449088453505,-0.007546919786540442,-0.06969421972438371,0.0246919202288159,0.009982814733865893,0.0,0.4052996277809143,-0.0,0.4753883405934947,-0.278554548618295,-0.28754755365791457,-0.00899300503961964,-0.00899300503961964,-0.008165948231151094,5.4073615074157715,0.0,9.288091382785119,1,0.018866890336545695,-0.006509291604402458,0.0030456940362518945,0.0,0,0.008221864700317383,0.014957518661192671,0.010089656904391531,-0.28754755365791457,1.5707963267948966,-0.29426422575786276,1,0.004030003259968917,0.029685491479233835,-0.0008320760868025777,0.03998861099989881
21.30170171000009,9.387418050658045,0.0,0.0,-0.026408862820822332,0.0661374493894859,-0.0,0.018719638582964278,0.04202380790478711,0.0,-0.6306385397911072,0.4047312361687952,0.07535395361184788,0.02149288993199228,0.4047312361687952,0.0,0.0,0.0,0.0971435610646729,-0.0021767509450771804,-0.02886668993679751,0.030801512784259518,0.011169632677593324,0.0,0.3783831238746643,-0.0,0.026348112294130942,-0.2710496328347194,-0.2881958572112678,-0.017146224376548336,-0.017146224376548336,-0.02144920192420405,5.361135005950928,0.0,9.288091382785119,1,0.019865333574585267,-0.005335544256728131,0.0032175119816263893,0.0,0,0.008221864700317383,0.014957518661192671,0.010089656904391531,-0.2881958572112678,1.5707963267948966,-0.29426422575786276,1,0.003641021127956989,0.029837287350522726,-0.0007579822663065633,0.03987987099981183
21.40123028400012,9.390379878760902,0.0,0.0,-0.020277241622089767,0.10705116803092422,-0.0,0.015198098319530945,0.05058993186095301,0.0,-0.6123562455177307,0.35301743908929806,0.11702609976547344,0.018005159154045252,0.35301743908929806,0.0,0.0,0.0,0.08588567725560609,0.0009149020933070719,0.020225990934581006,0.03816653084762005,0.012390582797690966,0.0,0.3674137473106384,-0.0,-0.01439630822134038,-0.2672099084803321,-0.2888107457677873,-0.02160083728745521,-0.02160083728745521,-0.024264712622679582,5.294802665710449,0.0,9.288091382785119,1,0.020457699195156567,-0.004524296399014217,0.00282829978886156,0.0,0,0.008221864700317383,0.014957518661192671,0.010089656904391531,-0.2888107457677873,1.5707963267948966,-0.29426422575786276,1,0.0032720879940452696,0.029926644702427504,-0.0006522112643872665,0.040010260000144626
21.505613173000256,9.393900201712297,0.0,0.0,-0.015792529010207952,0.06337569540962947,-0.0,0.00816971840219346,0.06818809218841201,0.0,-0.5536350607872009,0.22060150331433245,0.08020480239320552,0.04725763809180861,0.22060150331433245,0.0,0.0,0.0,0.0798015896885632,0.005971218601160675,-0.02240421794799358,0.053361535196082326,0.014812822493122595,0.0,0.33218103647232056,-0.0,-0.1115795331579881,-0.26319565120074495,-0.2895108542606405,-0.02631520305989543,-0.02631520305989543,-0.03195841447683387,5.252971649169922,0.0,9.288091382785119,1,0.02116176378543564,-0.003268893626340384,0.0025880506891346037,0.0,0,0.008221864700317383,0.014957518661192671,0.010089656904391531,-0.2895108542606405,1.5707963267948966,-0.29426422575786276,1,0.0028520228983333618,0.030046347129405904,-0.0004734083545992926,0.04103322199989634
21.60115156100028,9.39619306079541,0.0,0.0,-0.01904859552170415,0.1892101441858502,-0.0,0.013888282646165857,0.057054812171439324,0.0,-0.5189914703369141,0.16347859644116272,0.19762438128040813,0.0005780815550736618,0.16347859644116272,0.0,0.0,0.0,0.08901446458311545,0.008769185501498774,0.0914059661710826,0.04049376591051785,0.016532890998794972,-0.0,0.31139488220214845,-0.0,-0.14791628576098573,-0.2621484536495484,-0.28994576091927143,-0.02779730726972307,-0.02779730726972307,-0.030009864548571113,5.196629047393799,0.0,9.288091382785119,1,0.021620335602058206,-0.0024084010701889017,0.0022005902114790084,0.0,0,0.008221864700317383,0.014957518661192671,0.010089656904391531,-0.28994576091927143,1.5707963267948966,-0.29426422575786276,1,0.0025910789031547976,0.030117085691404418,-0.0004136247163397959,0.04000666699994326
21.701691412999935,9.400033549255822,0.0,0.0,-0.0048936917740959865,0.09020846635101293,-0.0,0.00307063282468757,0.08365081631239328,0.0,-0.46876049041748047,0.15653666163861513,0.11038893119443055,0.05430755325811383,0.15653666163861513,0.0,0.0,0.0,0.06074726708544493,0.012557593912418466,0.016902602294395035,0.06408221787475263,0.019566999854984893,0.0,0.28125629425048826,-0.0,-0.12471963261187313,-0.261973920724349,-0.2904984578328999,-0.028524537108550962,-0.028524537108550962,-0.0324385927150869,5.162683486938477,0.0,9.288091382785119,1,0.0223884332941406,-0.0010776972278171177,0.0014079662893282234,0.0,0,0.008221864700317383,0.014957518661192671,0.010089656904391531,-0.2904984578328999,1.5707963267948966,-0.29426422575786276,1,0.002259460754977716,0.030210724431763314,-0.00027127150989317457,0.04004788900010681
21.801164839000194,9.40146280513853,0.0,0.0,-0.007960334404007187,0.11896347361889965,-0.0,0.0059385082174628805,0.07976177921623051,0.29600000381469727,-0.42462706565856934,0.8787066427904473,0.13682731504718598,0.04233834356929242,0.8787066427904473,0.0,0.0,0.0,0.06941199384561324,0.014910525642095617,0.03463720302558309,0.05796602422907338,0.0217907267790738,-0.0,0.43237624168395994,-0.0,0.44633040110648736,-0.26319565120074495,-0.29054834991225026,-0.02735269871150514,-0.02735269871150514,-0.029080993650142994,5.11628532409668,0.0,9.288091382785119,1,0.02267428447068234,-0.00017300051986407071,0.0010892879386351043,0.0,0,0.008221864700317383,0.014957518661192671,0.010089656904391531,-0.29054834991225026,1.5707963267948966,-0.29426422575786276,1,0.002229525507367502,0.03027034565802982,-0.0002131701165374509,0.04027737100022932
21.901673672000015,9.40068173988835,0.0,0.0,0.007479775863730353,0.05641787295611606,-0.0,0.005546031787918015,0.08456261567510072,0.4440000057220459,-0.39341720938682556,0.6702058826644064,0.07827159455154657,0.06486424165181881,0.6702058826644064,0.0,0.0,0.0,0.035529325251750954,0.017061090366008978,0.003824185398145449,0.05930773682870671,0.025259291619409263,-0.0,0.5024503290653228,-0.0,0.1677555535990836,-0.2659881780039357,-0.2904415002884239,-0.024453322284488266,-0.024453322284488266,-0.02402546543930442,5.088034152984619,0.0,9.288091382785119,1,0.022518071420646282,0.0011825807227205634,-7.118298338606081e-05,0.0,0,0.008221864700317383,0.014957518661192671,0.010089656904391531,-0.2904415002884239,1.5707963267948966,-0.29426422575786276,1,0.0022936352816633086,0.030361465149337213,-0.00015100644821581795,0.04002042599995548
22.003423357999964,9.399899857724778,0.0,0.0,0.006246362429977434,0.0584208555112775,-0.0,0.012213006068982632,0.07174230781803315,0.5659999847412109,-0.35321512818336487,0.7586727219532259,0.07652148774800693,0.05200400948540996,0.7586727219532259,0.0,0.0,0.0,0.039124336804532436,0.0184628528634807,0.0008177978532327023,0.044568495535043495,0.027181927993095184,-0.0,0.5515290677547454,-0.0,0.20714365419848044,-0.2684316389567276,-0.29048417860850556,-0.02205253965177789,-0.02205253965177789,-0.022745094846873627,5.052042007446289,0.0,9.288091382785119,1,0.022361694987931814,0.0020781003815970693,-0.0004096434829457986,0.0,0,0.008221864700317383,0.014957518661192671,0.010089656904391531,-0.29048417860850556,1.5707963267948966,-0.29426422575786276,1,0.002268028289614321,0.030422095965492765,-0.00021871112474105693,0.03998877799995171
22.10178094999992,9.398285561909539,0.0,0.0,0.015786817469148492,0.02528927920188807,-0.0,0.018566443964649692,0.059059083976471034,0.6079999804496765,-0.2927532196044922,0.5142847687570132,0.041172057386087854,0.049319212618284924,0.5142847687570132,0.0,0.0,0.0,0.018330645166817174,0.019490865260605717,-0.012568909494057492,0.029697180935767082,0.029393090118388532,-0.0,0.5404519200325012,-0.0,-0.026167151275487983,-0.2720968303859159,-0.29102723224362764,-0.018930401857711665,-0.018930401857711665,-0.01891395791539297,5.03131628036499,0.0,9.288091382785119,1,0.02203883582488402,0.0034091729819612417,-0.0013290798982344158,0.0,0,0.008221864700317383,0.014957518661192671,0.010089656904391531,-0.29102723224362764,1.5707963267948966,-0.29426422575786276,1,0.0019421961085410722,0.03050361999002578,-0.00038065352675030516,0.03996444499989593
22.201152672000262,9.396570270441917,0.0,0.0,0.023494401537317345,-0.046910321752296175,-0.0,0.023274825714930125,0.048498579903024475,0.2199999988079071,-0.24301636219024658,-0.8888369048775995,-0.03100500094439029,0.059928127419037205,-0.8888369048775995,0.0,0.0,0.0,0.0013937145533387152,0.019891159924603698,-0.06825284678745992,0.018632555243256264,0.029924219095112108,0.0,0.2778098165988922,-0.0,-1.1666467214764917,-0.2748893571891067,-0.29130618476020725,-0.016416827571100523,-0.016416827571100523,-0.0165300371015451,5.0081257820129395,0.0,9.288091382785119,1,0.02169577753135954,0.004279632971930113,-0.0018475023508183427,0.0,0,0.008221864700317383,0.014957518661192671,0.010089656904391531,-0.29130618476020725,1.5707963267948966,-0.29426422575786276,1,0.0017748245985933053,0.030552015074589264,-0.0005826706658632357,0.03999935199999527
22.302002154000093,9.394716441114054,0.0,0.0,0.025259914649871262,0.04430496651577515,-0.0,0.028374195739801378,0.03751229090140947,0.0,-0.1500246524810791,-0.5063293236910466,0.053214078193752457,0.02320267029083345,-0.5063293236910466,0.0,0.0,0.0,-0.002283101319157878,0.019635530890308173,0.026866840373693003,0.007058700797710799,0.03052988083233733,-0.0,0.08668516429309073,-0.0,-0.5930144879841373,-0.27907814739389325,-0.29139383277443925,-0.01231568538054617,-0.01231568538054617,-0.010874311252671517,4.997193336486816,0.0,9.288091382785119,1,0.02132501166578713,0.0055704941346278085,-0.0026733644774336197,5.0021467208862305,1,0.0014860153198242188,1.987380393951299e-05,-0.00705526778302496,-0.29139383277443925,1.5707963267948966,-0.29426422575786276,1,0.0017222357900541052,0.030621864948009517,-0.0007614046356664303,0.0403059810000741
22.401221635000184,9.391550341876288,0.0,0.0,0.030098491147272033,0.004517194092286732,-0.0,0.033669167686416826,0.025584191930036818,0.0,-0.10608559846878052,-0.29664870431821566,0.01167601881947574,0.023208328326434876,-0.29664870431821566,0.0,0.0,0.0,-0.013428518816068269,0.01920536980421418,-0.0013803625101006716,-0.004751680075418952,0.030443776569521935,-0.0,0.05829430512941437,-0.0,-0.35494300944763,-0.28187067419708445,-0.2913606252688312,-0.009489951071746994,-0.009489951071746994,-0.006902478631966511,4.989546775817871,0.0,9.288091382785119,1,0.020691791818233798,0.0064034452862417315,-0.003100618146325436,5.0021467208862305,1,0.003268575668334961,9.494971401757754e-05,-0.012291948635442427,-0.2913606252688312,1.5707963267948966,-0.29426422575786276,1,0.001742160293418926,0.030668363163433604,-0.0009012103501715894,0.03999133299976165
22.50450846800004,9.386840920074919,0.0,0.0,0.03881216485410601,-0.045787385223057676,-0.0,0.032393721237707195,0.028517925333574827,0.10000000149011612,-0.0646175965666771,0.08847124654145384,-0.03567164372885171,0.04046344701799272,0.08847124654145384,0.0,0.0,0.0,-0.03390415434742914,0.017622368501000105,-0.029617389187978495,-0.0017578669537370016,0.03040973196516735,-0.0,0.09877055883407593,-0.0,-0.010299312292622086,-0.2853613327010729,-0.2912134360759355,-0.005852103374862416,-0.005852103374862416,-0.00424182188588621,4.988165378570557,0.0,9.288091382785119,1,0.019749907457959993,0.007609721925771098,-0.0039584437784565074,0.0,0,0.0037799835205078124,0.00014533857391832398,-0.013004427690597278,-0.2912134360759355,1.5707963267948966,-0.29426422575786276,1,0.0018304738091563743,0.030740326326386482,-0.000976109331352486,0.04005864800001291
22.60113602399997,9.383443287192417,0.0,0.0,0.03752309461467706,-0.03306558698762137,-0.0,0.039439094051146165,0.012619389139058244,0.0,-0.044009484350681305,-0.4703197964295344,-0.028051039654746625,0.021580574583795697,-0.4703197964295344,0.0,0.0,0.0,-0.03138019565445484,0.01654657335436584,-0.018397729225343155,-0.01729843890440315,0.03007553953723876,-0.0,0.019695970569184856,-0.0,-0.4900157669987193,-0.2869321290278677,-0.2911739027684241,-0.004241773740556454,-0.004241773740556454,-0.003745743592416798,4.988476276397705,0.0,9.288091382785119,1,0.01907038088145967,0.008377390568407575,-0.004188402132669655,4.988162517547607,1,0.0,0.0,-0.011182866735373213,-0.2911739027684241,1.5707963267948966,-0.29426422575786276,1,0.0018541937936632058,0.030789351020590897,-0.0010673775378366415,0.03998970400016333
22.702020005000122,9.37797101602332,0.0,0.0,0.04014776911912433,-0.023522584540120014,-0.0,0.03516097949979313,0.021647794297209432,0.0,-0.02594015747308731,-0.06546837906337907,-0.016316657610413017,0.027490101233097294,-0.06546837906337907,0.0,0.0,0.0,-0.03796342108172453,0.014538299449763288,-0.0002292925413782117,-0.007866207830872267,0.029664528812856906,0.0,0.011047899651711978,-0.0,-0.07651627871509105,-0.2881538595042641,-0.29121833423631144,-0.0030644747320471843,-0.0030644747320471843,-0.0048619953188659085,4.990373611450195,0.0,9.288091382785119,1,0.01797592664764025,0.009476880597417827,-0.004561138617626712,4.988162517547607,1,-0.0006633281707763671,-1.5772179326088037e-05,-0.006847891036798229,-0.29121833423631144,1.5707963267948966,-0.29426422575786276,1,0.0018275349129307948,0.030863303126371706,-0.0011054075535422141,0.040449351999996
22.801232561000234,9.37488017885981,0.0,0.0,0.031231382167350233,-0.005308100456928587,-0.0,0.04674666142446641,-0.005164915654999487,0.0,-0.015460176393389702,-0.025511690620290444,-0.00656820117283931,-0.003422136399563372,-0.025511690620290444,0.0,0.0,0.0,-0.017394615117441687,0.013824701960275167,-0.0019712836500771764,-0.03379879929634837,0.028789615002192022,-0.0,0.005750385616962973,-0.0,-0.03126207623725342,-0.28867745827986235,-0.29140870475564606,-0.0027312464757835997,-0.0027312464757835997,-0.005446612416232413,4.9941606521606445,0.0,9.288091382785119,1,0.017357759214938186,0.010177239611910548,-0.004210259894699265,4.988162517547607,1,-0.001366567611694336,-4.709679192745075e-05,-0.004462535961496293,-0.29140870475564606,1.5707963267948966,-0.29426422575786276,1,0.0017133126013300192,0.03090980610011411,-0.0012395478662269816,0.0400077220001549
22.901855523999984,9.370863222617904,0.0,0.0,0.03125172430243174,0.021254453926140626,-0.0,0.047567851581299614,-0.009822714139664996,0.0,-0.021510088816285133,0.010658069094930708,0.017529157400943938,-0.015523084924748097,0.010658069094930708,0.0,0.0,0.0,-0.016368610609361317,0.01291836005438196,0.02446324321439279,-0.03648123605462699,0.026817160169300153,0.0,0.009320295105142115,-0.0,0.001337773989788593,-0.2881538595042641,-0.29186796216267724,-0.0037141026584133208,-0.0037141026584133208,-0.009449693124815887,4.996134281158447,0.0,9.288091382785119,1,0.016554367966557137,0.011186214209810062,-0.003929135423645145,4.988162517547607,1,-0.002391529083251953,-0.00013150421088941306,-0.0034532303469069093,-0.29186796216267724,1.5707963267948966,-0.29426422575786276,1,0.0014377581571113128,0.03097171664781267,-0.0014240032484548143,0.04023957399977007
23.004326690000198,9.368618705023152,0.0,0.0,0.02864061717113202,-0.03514124749994796,-0.0,0.05576650353602331,-0.030784517845946834,0.0,-0.01892050914466381,0.03231874193983311,-0.04252205855190043,-0.019351184753620895,0.03231874193983311,0.0,0.0,0.0,-0.009478823031087678,0.012697467414394498,-0.038691840809190456,-0.055444833528653516,0.02483079834712459,0.0,0.007836016771581732,-0.0,0.024482725168251382,-0.2876302607286654,-0.29233351340604696,-0.004703252677381364,-0.004703252677381364,-0.012129266989655836,4.998659133911133,0.0,9.288091382785119,1,0.016105464447606722,0.011834623175476816,-0.0036080263751731927,4.988162517547607,1,-0.002845287322998047,-0.00020448109094095858,-0.0028107127780885835,-0.29233351340604696,1.5707963267948966,-0.29426422575786276,1,0.0011584274110894798,0.031004493311301857,-0.0015986142448468981,0.04000687100005962
23.101993357000083,9.366786101467811,0.0,0.0,0.027320232073900753,0.0483736718878117,-0.0,0.05952129663434659,-0.04362012661123824,0.0,-0.03028916008770466,0.042053788414056555,0.03369530507965978,-0.055743645315666,0.042053788414056555,0.0,0.0,0.0,-0.005290001940283045,0.011977510408256547,0.041307934994991524,-0.06523222053556987,0.02178570049757611,-0.0,0.013898135605182176,-0.0,0.02815565280887438,-0.28675759610266827,-0.2933256554056757,-0.006568059303007523,-0.006568059303007523,-0.013798575290727692,4.999300479888916,0.0,9.288091382785119,1,0.015738943736538502,0.012789328835533995,-0.0036125868346640376,4.988162517547607,1,-0.003341388702392578,-0.0003343326672206085,-0.003449879376121181,-0.2933256554056757,1.5707963267948966,-0.29426422575786276,1,0.0005631422113122508,0.03103490812992042,-0.0017277630412360213,0.040428036999855976
23.201216375000058,9.364404029883046,0.0,0.0,0.03302817322319629,-0.07901317878875076,-0.0,0.06008648465654048,-0.04851908185025701,0.0,-0.04185963794589043,0.08337539924480597,-0.08968360198513625,-0.0235379536252984,0.08337539924480597,0.0,0.0,0.0,-0.01744788680517398,0.011692479142195279,-0.0736433146827202,-0.06761613732960468,0.019308979998759287,0.0,0.02019670540341534,-0.0,0.06317869384139063,-0.28588493147667116,-0.2940292445060277,-0.008144313029356365,-0.008144313029356365,-0.017932359637528726,4.999706268310547,0.0,9.288091382785119,1,0.015262529419585391,0.013404903843960612,-0.0035701176790651607,4.988162517547607,1,-0.003460121154785156,-0.000425654074002356,-0.00431268704474401,-0.2940292445060277,1.5707963267948966,-0.29426422575786276,1,0.00014098875110104547,0.031041609438045188,-0.0018307214096987907,0.04008198200017432
23.30196504200012,9.361317965772647,0.0,0.0,0.03405556239971147,-0.053785598381519806,-0.0,0.057569200977236515,-0.04848676034741793,0.0,-0.05316586419939995,0.05894093949400996,-0.06556469028967671,-0.0307429326750858,0.05894093949400996,0.0,0.0,0.0,-0.019438463070714486,0.010948451897036457,-0.045649619932002526,-0.0637677529093683,0.015490423704376048,0.0,0.02583107156150291,-0.0,0.03310986793250705,-0.28431413514987636,-0.2951782541137175,-0.010864118963841207,-0.010864118963841207,-0.027029139616041836,4.999068260192871,0.0,9.288091382785119,1,0.014645316597505698,0.01429822557283992,-0.0037236448027770947,4.988162517547607,1,-0.0032717227935791016,-0.0005606364616853591,-0.0062817190082973,-0.2951782541137175,1.5707963267948966,-0.29426422575786276,1,-0.0005484170135128475,0.031028582300712426,-0.0018963065414941051,0.040089721999720496
23.40116556000021,9.359736545405177,0.0,0.0,0.03854753485519188,-2.6031134189739217e-05,-0.0,0.05597824531759797,-0.047785485178126585,0.0,-0.07354804128408432,0.10702356600628934,-0.013960008411242363,-0.04570089098132492,0.10702356600628934,0.0,0.0,0.0,-0.0297684454395095,0.009840114313849721,0.019567508094963562,-0.06109442731946098,0.013539485314429571,-0.0,0.037082151289695824,-0.0,0.06994141471659351,-0.2830924046734804,-0.2959179491019724,-0.01282554442849193,-0.01282554442849193,-0.02826096537120262,4.997511863708496,0.0,9.288091382785119,1,0.01432903252401161,0.014873467574556171,-0.004186076806789313,4.988162517547607,1,-0.0029488563537597655,-0.0006429965638402955,-0.008152602883657887,-0.2959179491019724,1.5707963267948966,-0.29426422575786276,1,-0.0009922340064657752,0.031004959526512162,-0.001804674438567038,0.03998507400001472
23.503475505000097,9.357519516796906,0.0,0.0,0.03716229902416657,-0.04799341375621939,-0.0,0.04976934610914789,-0.038675155217704156,0.0,-0.09380774945020676,0.12281030759136016,-0.057210938151667785,-0.02293564803739411,0.12281030759136016,0.0,0.0,0.0,-0.02563739796160993,0.00896388209523847,-0.031584603489198906,-0.04887256269031668,0.01039506063475933,0.0,0.04807670084872671,-0.0,0.07473360674263346,-0.28064894372068805,-0.29701486016982187,-0.016365916449133877,-0.016365916449133877,-0.03888789217710592,4.994650840759277,0.0,9.288091382785119,1,0.013885626802357366,0.015716519092245924,-0.004093209580259418,4.988162517547607,1,-0.0019464969635009765,-0.0007391356741414078,-0.010994282064686514,-0.29701486016982187,1.5707963267948966,-0.29426422575786276,1,-0.0016503806471754644,0.030947234640663998,-0.0017423091072118577,0.040169260000311624
